millis(),Current_state,Calculated_flight_time,Time_since_last_log,IMU_accel_X,IMU_accel_Y,IMU_accel_Z,IMU_mag_X,IMU_mag_Y,IMU_mag_Z,IMU_gyro_X,IMU_gyro_Y,IMU_gyro_Z,IMU_temp,BARO_temp,BARO_press,BARO_alt,Velocity_inte,Velocity_diff,Velocity_est,lastInte.x,lastInte.y,lastDiff.x,lastDiff.y,Est_apogee,Z_accel_times_burnoutMass
1286,5,1286,1286,0.208,0.466,0.320,34.697,3.800,49.225,0.26,0.36,0.18,-459.0,15.888,90781.828,917.506,0.0,0.0,0.0,1279.0,0.556,1279.0,917.270,-2147483648.2147483647,0.207
1376,5,1376,90,0.193,0.660,0.801,34.770,3.10,48.801,0.22,0.18,0.9,-459.0,15.888,90780.546,917.390,-28.146,0.1,2.193,1370.0,0.61,1370.0,917.108,-78.140,0.520
1460,5,1460,84,0.236,0.646,0.858,34.785,3.536,49.93,0.30,0.34,0.34,-459.0,15.892,90782.609,917.717,-55.333,0.7,1.621,1454.0,0.585,1454.0,917.717,-92.402,0.557
1540,5,1540,80,0.409,0.452,0.499,34.814,3.610,48.976,0.23,0.27,0.18,-459.0,15.892,90779.23,918.462,-98.453,0.7,3.411,1534.0,0.492,1534.0,917.131,-57.984,0.324
1620,5,1620,80,0.258,0.366,0.370,34.390,3.259,48.874,0.16,0.2,0.37,-459.0,15.906,90777.750,917.739,-137.841,0.1,1.914,1614.0,0.492,1614.0,917.225,-84.389,0.240
1706,5,1706,86,0.71,0.646,-1.159,34.346,3.405,48.421,0.17,0.21,0.26,-459.0,15.911,90777.750,917.878,-172.158,0.1,2.103,1700.0,0.305,1700.0,917.131,-80.453,0.753
1786,5,1786,80,0.193,0.552,0.470,33.981,3.361,48.450,0.22,0.38,0.32,-459.0,15.906,90778.773,916.921,-190.872,0.4,1.741,1780.0,0.162,1780.0,917.481,-88.490,0.305
1876,5,1876,90,0.294,0.473,0.521,34.127,3.200,48.582,0.18,0.32,0.38,-459.0,15.892,90773.132,917.131,-217.93,0.5,3.162,1870.0,0.420,1870.0,916.943,-62.615,0.338
1955,5,1955,79,0.258,0.452,0.442,33.893,3.171,48.582,0.23,0.47,0.27,-459.0,15.911,90778.773,917.971,-247.766,0.6,1.660,1949.0,0.355,1949.0,917.458,-90.941,0.287
2035,5,2035,80,0.186,0.445,0.506,34.185,3.171,48.436,0.16,0.20,0.8,-459.0,15.920,90775.187,917.761,-277.678,0.4,1.754,2029.0,0.391,2029.0,917.784,-88.876,0.329
2115,5,2115,80,0.251,0.437,0.413,34.697,3.142,49.400,0.20,0.28,0.26,-427.0,15.916,90777.500,917.667,-311.323,0.6,3.54,2109.0,0.449,2109.0,917.270,-64.11,0.268
2195,5,2195,80,0.150,0.581,0.513,34.317,3.215,48.611,0.19,0.31,0.15,-459.0,15.920,90780.835,917.784,-348.414,0.2,1.826,2189.0,0.477,2189.0,917.481,-87.54,0.333
2275,5,2275,80,0.236,0.509,0.585,34.814,3.595,48.494,0.25,0.28,0.33,-427.0,15.929,90773.664,917.690,-385.792,0.3,2.392,2269.0,0.456,2269.0,917.199,-74.589,0.380
2356,5,2356,81,0.358,0.516,0.477,34.273,3.478,48.772,0.23,0.34,0.47,-459.0,15.925,90779.554,917.481,-424.319,0.11,1.516,2349.0,0.506,2349.0,918.133,-95.3,0.310
2445,5,2445,89,0.136,0.480,0.327,34.799,3.522,48.801,0.17,0.40,0.24,-427.0,15.920,90775.187,917.690,-460.877,0.5,3.59,2439.0,0.305,2439.0,917.619,-62.479,0.212
2525,5,2525,80,0.323,0.430,0.571,33.864,3.332,48.801,0.15,0.21,0.16,-427.0,15.929,90777.250,917.502,-492.512,0.5,1.704,2519.0,0.485,2519.0,918.39,-89.839,0.371
2605,5,2605,80,0.437,0.516,0.635,35.150,2.996,49.181,0.22,0.26,0.28,-427.0,15.929,90775.968,917.596,-533.49,0.14,-5.930,2599.0,0.528,2599.0,916.895,-34.322,0.412
2685,5,2685,80,0.107,0.574,0.549,35.472,3.463,49.108,0.29,0.26,0.30,-427.0,15.939,90775.968,918.133,-573.872,0.6,1.650,2679.0,0.492,2679.0,917.433,-90.407,0.357
2771,5,2771,86,0.14,0.588,0.377,34.785,3.98,48.859,0.18,0.11,0.14,-427.0,15.934,90775.718,918.39,-611.893,0.4,2.725,2765.0,0.391,2765.0,917.12,-68.976,0.245
2851,5,2851,80,0.344,0.452,0.384,34.448,3.215,49.49,0.17,0.22,0.7,-427.0,15.934,90779.312,917.945,-644.389,0.10,1.543,2845.0,0.420,2845.0,917.852,-94.213,0.249
2931,5,2931,80,0.215,0.495,0.506,34.668,3.463,49.6,0.25,0.38,0.18,-427.0,15.943,90777.0,916.989,-675.163,0.6,3.54,2925.0,0.348,2925.0,917.339,-63.559,0.329
3026,5,3026,95,0.179,0.552,0.485,34.551,3.171,48.933,0.25,0.32,0.41,-427.0,15.929,90772.382,917.596,-712.730,0.0,1.914,3020.0,0.442,3020.0,917.433,-84.217,0.315
3106,5,3106,80,0.229,0.610,0.434,34.770,3.230,48.699,0.25,0.30,0.21,-427.0,15.929,90780.335,918.133,-749.821,0.5,1.704,3100.0,0.485,3100.0,917.852,-89.173,0.282
3186,5,3186,80,0.215,0.480,0.477,34.478,2.981,49.137,0.17,0.22,0.2,-427.0,15.943,90781.367,918.272,-787.486,0.2,2.265,3180.0,0.456,3180.0,917.642,-77.102,0.310
3267,5,3267,81,0.358,0.473,0.456,34.346,3.317,49.196,0.12,0.13,0.14,-427.0,15.939,90779.62,918.39,-825.331,0.2,2.231,3261.0,0.477,3261.0,917.454,-77.992,0.296
3347,5,3347,80,0.100,0.559,0.477,32.972,3.463,48.933,0.19,0.24,0.23,-427.0,15.943,90774.695,917.433,-856.392,0.1,2.102,3341.0,0.298,3341.0,917.361,-80.440,0.310
3428,5,3428,81,0.143,0.782,0.499,34.492,3.712,48.757,0.20,0.18,0.24,-427.0,15.948,90775.718,917.619,-877.403,0.1,2.131,3421.0,0.226,3421.0,917.245,-80.4,0.324
3506,5,3506,78,0.122,0.344,0.506,34.653,3.317,48.976,0.21,0.15,0.8,-427.0,15.948,90777.781,917.128,-900.987,0.2,1.826,3500.0,0.370,3500.0,917.454,-85.845,0.329
3614,5,3614,108,0.122,0.337,0.348,34.346,3.259,48.436,0.13,0.17,0.2,-427.0,15.929,90782.898,917.481,-948.733,0.0,2.102,3608.0,0.513,3608.0,917.361,-80.243,0.226
3694,5,3694,80,0.193,0.488,0.399,34.522,3.507,48.26,0.27,0.25,0.22,-427.0,15.929,90771.109,917.525,-986.686,0.0,1.933,3688.0,0.434,3688.0,917.433,-83.966,0.259
3779,5,3779,85,0.0,0.638,0.477,34.448,3.507,48.406,0.27,0.23,0.10,-427.0,15.939,90774.695,917.852,-1026.705,0.0,2.76,3773.0,0.506,3773.0,917.361,-80.653,0.310
3859,5,3859,80,0.265,0.495,0.485,34.448,3.127,48.611,0.36,0.23,0.23,-427.0,15.943,90772.132,917.222,-1065.231,0.6,1.660,3853.0,0.456,3853.0,917.875,-90.720,0.315
3939,5,3939,80,0.107,0.524,0.477,34.273,3.463,48.947,0.34,0.34,0.36,-427.0,15.943,90775.476,917.665,-1104.332,0.11,16.114,3933.0,0.521,3933.0,916.941,11.277,0.310
4019,5,4019,80,0.337,0.416,0.370,34.229,3.741,48.903,0.26,0.18,0.23,-427.0,15.957,90777.531,917.548,-1146.304,0.4,1.740,4013.0,0.528,4013.0,917.290,-88.921,0.240
4116,5,4116,97,0.14,0.409,0.413,34.419,3.610,48.377,0.8,0.26,0.2,-427.0,15.953,90782.398,917.339,-1191.973,0.4,1.715,4110.0,0.413,4110.0,917.688,-89.177,0.268
4196,5,4196,80,0.14,0.265,0.348,34.799,3.259,48.436,0.5,0.40,0.0,-427.0,15.953,90778.812,917.758,-1225.44,0.1,2.132,4190.0,0.413,4190.0,917.571,-79.331,0.226
4276,5,4276,80,0.437,0.875,0.269,34.945,3.390,48.392,0.10,0.55,0.74,-427.0,15.953,90779.62,917.454,-1252.85,0.0,2.0,4270.0,0.262,4270.0,917.571,-82.428,0.175
4361,5,4361,85,0.265,0.760,0.535,34.755,3.83,48.947,0.24,0.15,0.0,-427.0,15.943,90777.781,916.824,-1279.901,0.3,1.766,4355.0,0.391,4355.0,917.875,-88.146,0.347
4442,5,4442,81,0.43,0.459,0.377,34.638,3.40,49.283,0.16,0.41,0.88,-427.0,15.953,90773.164,918.62,-1312.397,0.2,2.265,4435.0,0.420,4435.0,917.665,-76.749,0.245
4521,5,4521,79,0.308,0.595,0.470,34.565,2.835,49.49,0.28,0.17,0.12,-427.0,15.948,90769.828,917.758,-1343.171,0.5,2.723,4515.0,0.348,4515.0,917.245,-68.563,0.305
4612,5,4612,91,0.64,0.667,0.477,34.390,2.674,48.962,0.45,0.18,0.25,-427.0,15.939,90777.0,918.39,-1378.829,0.5,1.660,4606.0,0.434,4606.0,917.758,-90.859,0.310
4692,5,4692,80,0.21,0.689,0.384,34.83,2.616,48.728,0.42,0.38,0.75,-427.0,15.939,90783.679,917.315,-1417.930,0.2,2.266,4686.0,0.542,4686.0,917.548,-76.660,0.249
4772,5,4772,80,0.21,0.638,0.154,34.653,2.747,48.976,0.49,0.46,0.72,-427.0,15.934,90774.445,917.409,-1453.298,0.2,2.264,4766.0,0.341,4766.0,917.339,-76.789,0.100
4851,5,4851,79,0.351,0.251,0.485,34.507,2.689,48.786,0.52,0.47,0.3,-427.0,15.939,90776.750,917.968,-1485.955,0.5,1.693,4845.0,0.485,4845.0,917.781,-89.950,0.315
4931,5,4931,80,0.258,0.200,0.391,34.902,2.923,49.298,0.25,0.31,0.72,-427.0,15.948,90777.781,917.34,-1524.195,0.5,2.722,4925.0,0.470,4925.0,917.361,-68.656,0.254
5011,5,5011,80,0.186,0.272,0.449,33.659,2.616,49.64,0.7,0.19,0.139,-427.0,15.957,90769.578,917.968,-1559.276,0.1,1.896,5005.0,0.406,5005.0,917.477,-85.113,0.291
5091,5,5091,80,0.437,0.559,0.499,34.536,2.747,48.889,0.44,0.35,0.186,-427.0,15.957,90777.281,917.991,-1597.228,0.1,1.895,5085.0,0.542,5085.0,917.594,-84.473,0.324
5181,5,5181,90,0.107,0.330,0.391,33.820,3.54,49.605,0.28,0.36,0.41,-427.0,15.953,90772.914,917.875,-1644.123,0.2,1.826,5175.0,0.499,5175.0,917.804,-86.552,0.254
5261,5,5261,80,0.78,0.602,0.341,35.4,2.747,49.576,0.10,0.62,0.164,-427.0,15.962,90778.562,917.665,-1680.640,0.5,2.725,5255.0,0.413,5255.0,917.383,-68.283,0.221
5341,5,5341,80,0.222,0.100,0.456,33.659,2.747,49.386,0.13,0.72,0.95,-427.0,15.962,90772.664,917.268,-1713.711,0.1,2.102,5335.0,0.413,5335.0,917.290,-80.379,0.296
5426,5,5426,85,0.401,0.825,0.485,34.68,2.309,49.386,0.16,0.60,0.84,-427.0,15.971,90779.343,917.594,-1748.848,0.0,1.979,5420.0,0.413,5420.0,917.312,-83.279,0.315
5507,5,5507,81,0.107,0.667,0.420,33.864,2.90,50.0,0.20,0.52,0.143,-427.0,15.980,90783.960,917.826,-1786.514,0.2,1.826,5500.0,0.528,5500.0,917.522,-86.435,0.273
5586,5,5586,79,0.172,0.165,0.434,33.674,1.958,49.853,0.26,0.70,0.123,-427.0,15.980,90776.7,917.80,-1825.327,0.0,1.977,5580.0,0.442,5580.0,917.545,-82.970,0.282
5672,5,5672,86,0.193,0.868,0.427,33.908,1.520,49.444,0.29,0.85,0.135,-427.0,15.971,90779.93,917.290,-1863.656,0.5,1.670,5666.0,0.449,5666.0,918.37,-90.918,0.277
5778,5,5778,106,0.129,0.760,0.549,32.782,1.140,49.576,0.40,0.66,0.14,-427.0,15.962,90780.867,917.804,-1915.845,0.9,-189.510,5772.0,0.535,5772.0,917.31,120.380,0.357
5858,5,5858,80,0.308,0.567,0.499,33.440,1.8,49.751,0.55,0.58,0.28,-427.0,15.971,90783.960,917.920,-1954.946,0.6,1.670,5852.0,0.442,5852.0,917.522,-90.391,0.324
5944,5,5944,86,0.366,0.330,0.463,33.586,0.862,49.196,0.31,0.66,0.108,-427.0,15.980,90777.39,917.522,-1996.53,0.1,2.103,5938.0,0.513,5938.0,917.429,-80.228,0.301
6024,5,6024,80,0.509,0.229,0.470,32.972,1.461,49.941,0.1,0.72,0.39,-427.0,15.980,90774.476,917.429,-2035.154,0.1,2.103,6018.0,0.463,6018.0,917.335,-79.791,0.305
6104,5,6104,80,0.667,0.401,0.456,32.943,1.344,49.649,0.17,0.66,0.64,-427.0,15.994,90778.843,917.429,-2072.819,0.1,1.895,6098.0,0.477,6098.0,917.451,-85.358,0.296
6183,5,6183,79,0.502,0.624,0.578,32.665,1.169,49.561,0.20,0.47,0.125,-427.0,15.999,90777.570,917.639,-2112.849,0.0,1.977,6177.0,0.535,6177.0,917.474,-82.921,0.375
6274,5,6274,91,0.516,0.696,0.492,32.826,1.344,49.693,0.11,0.52,0.148,-427.0,15.990,90775.507,917.849,-2158.633,0.1,1.914,6268.0,0.470,6268.0,917.568,-84.731,0.319
6354,5,6354,80,0.782,0.222,0.413,32.475,1.900,49.868,0.17,0.32,0.5,-427.0,15.990,90782.179,917.429,-2198.20,0.2,2.266,6348.0,0.513,6348.0,917.357,-77.264,0.268
6434,5,6434,80,0.911,0.997,0.384,32.242,1.461,49.415,0.33,0.0,0.195,-427.0,15.994,90778.593,917.451,-2184.862,0.3,2.435,6428.0,0.842,6428.0,917.54,-73.434,0.249
6515,5,6515,81,0.552,0.638,0.635,32.738,1.885,49.780,0.9,0.18,0.65,-427.0,15.999,90770.640,917.568,-2173.139,0.9,1.580,6508.0,0.549,6508.0,917.778,-93.38,0.412
6594,5,6594,79,0.681,0.624,0.477,33.89,1.856,49.809,0.14,0.7,0.481,-427.0,16.4,90771.921,917.568,-2212.814,0.4,2.659,6588.0,0.442,6588.0,917.380,-69.815,0.310
6679,5,6679,85,1.263,0.287,0.930,32.578,1.987,49.488,0.51,0.45,0.47,-427.0,15.999,90777.570,917.966,-2256.494,0.2,2.264,6673.0,0.585,6673.0,917.171,-76.884,0.604
6759,5,6759,80,0.602,0.926,0.614,33.776,2.104,49.254,0.74,0.50,0.4,-427.0,15.994,90769.609,917.357,-2303.348,0.4,1.715,6753.0,0.585,6753.0,917.568,-89.986,0.398
6849,5,6849,90,0.617,0.940,0.513,33.922,3.230,49.576,0.45,0.19,0.373,-427.0,15.994,90775.507,918.59,-2347.659,0.0,1.977,6843.0,0.399,6843.0,917.591,-83.349,0.333
6929,5,6929,80,0.279,0.911,0.535,34.10,3.551,49.210,0.23,0.20,0.601,-427.0,15.994,90781.406,917.639,-2383.888,0.3,1.766,6923.0,0.506,6923.0,917.895,-87.676,0.347
7015,5,7015,86,0.43,-1.284,0.535,33.674,5.305,48.830,0.24,0.47,0.39,-427.0,15.994,90776.539,918.175,-2426.848,0.2,2.304,7009.0,0.492,7009.0,917.661,-76.106,0.347
7095,5,7095,80,0.157,0.976,0.492,32.958,4.866,49.283,0.23,0.121,0.303,-427.0,15.994,90775.257,918.292,-2463.364,0.8,1.604,7089.0,0.420,7089.0,918.315,-91.746,0.319
7175,5,7175,80,0.452,0.882,0.477,33.206,5.612,49.371,0.13,0.131,0.68,-427.0,15.994,90768.585,919.16,-2501.316,0.6,1.660,7169.0,0.528,7169.0,918.828,-90.4,0.310
7260,5,7260,85,0.739,-1.493,-2.208,32.548,5.466,49.356,0.22,0.121,0.84,-427.0,15.994,90770.640,919.16,-2549.573,0.8,4.944,7254.0,0.607,7254.0,918.81,-40.620,-1.433
7350,5,7350,90,0.344,0.983,-1.418,32.373,4.779,49.371,0.80,0.128,0.136,-427.0,15.990,90758.320,918.899,-2615.527,0.3,1.753,7344.0,0.858,7344.0,918.408,-87.65,0.921
7430,5,7430,80,0.918,0.818,0.944,32.227,5.290,49.298,0.58,0.110,0.4,-427.0,15.999,90764.992,918.899,-2669.559,0.11,1.510,7424.0,0.492,7424.0,919.365,-92.991,0.613
7518,5,7518,88,1.162,-1.277,0.564,32.358,4.530,49.693,0.74,0.69,0.200,-427.0,16.4,90767.54,919.38,-2711.769,0.7,3.702,7511.0,0.477,7511.0,918.735,-53.923,0.366
7597,5,7597,79,0.976,0.409,0.607,31.978,3.843,49.532,0.117,0.63,0.69,-427.0,15.994,90757.820,919.856,-2753.454,0.4,1.754,7591.0,0.564,7591.0,919.61,-87.229,0.394
7677,5,7677,80,1.328,0.71,0.528,30.795,3.536,50.0,0.21,0.7,0.246,-427.0,16.4,90760.132,918.945,-2798.584,0.0,1.977,7671.0,0.564,7671.0,919.84,-81.246,0.343
7756,5,7756,79,0.631,-1.141,0.542,31.145,3.434,50.204,0.42,0.19,0.22,-427.0,16.13,90772.703,918.221,-2841.733,0.4,2.483,7750.0,0.528,7750.0,918.758,-71.274,0.352
7836,5,7836,80,0.854,0.926,0.470,31.642,3.449,49.415,0.42,0.3,0.430,-427.0,16.4,90771.671,918.618,-2886.290,0.5,1.704,7830.0,0.585,7830.0,919.178,-89.339,0.305
7944,5,7944,108,0.215,0.918,0.592,31.935,2.996,49.839,0.44,0.38,0.686,-427.0,15.976,90776.539,918.269,-2947.604,0.9,-18.598,7938.0,0.549,7938.0,918.127,16.803,0.384
8023,5,8023,79,0.689,-1.134,0.578,31.920,2.557,49.897,0.70,0.45,0.524,-427.0,15.999,90774.226,917.872,-2993.304,0.3,2.342,8017.0,0.607,8017.0,917.872,-76.6,0.375
8103,5,8103,80,0.710,-1.306,0.528,32.198,2.718,49.283,0.28,0.8,0.199,-427.0,15.999,90775.257,917.661,-3041.594,0.0,2.76,8097.0,0.600,8097.0,917.801,-81.71,0.343
8183,5,8183,80,0.660,-1.529,0.635,32.578,2.265,50.73,0.9,0.28,0.220,-427.0,16.13,90771.921,917.661,-3090.744,0.4,2.660,8177.0,0.628,8177.0,917.403,-69.768,0.412
8269,5,8269,86,0.969,0.811,0.556,31.964,1.885,49.693,0.33,0.20,0.210,-427.0,15.994,90767.54,918.315,-3144.199,0.3,1.766,8263.0,0.614,8263.0,917.707,-87.963,0.361
8349,5,8349,80,0.854,-1.514,0.678,33.294,1.958,49.663,0.40,0.62,0.154,-427.0,16.4,90766.23,917.684,-3216.320,0.6,1.660,8343.0,-1.188,8343.0,918.221,-90.825,0.440
8440,5,8440,91,0.50,-1.478,0.399,32.432,2.616,49.693,0.14,0.18,0.77,-427.0,15.990,90776.789,917.755,-3295.419,0.4,1.703,8434.0,0.549,8434.0,918.641,-89.81,0.259
8521,5,8521,81,0.172,-1.536,0.657,32.870,2.557,49.619,0.11,0.57,0.61,-427.0,15.999,90772.421,917.755,-3339.114,0.13,-18.835,8514.0,0.542,8514.0,917.591,17.789,0.426
8605,5,8605,84,0.538,-1.220,0.564,32.534,2.762,49.941,0.1,0.84,0.159,-427.0,15.990,90773.203,918.59,-3386.150,0.0,2.0,8599.0,0.564,8599.0,917.591,-81.947,0.366
8685,5,8685,80,0.552,-1.672,0.556,32.285,2.60,49.780,0.28,0.81,0.7,-427.0,15.990,90772.171,917.661,-3432.430,0.1,2.132,8679.0,0.592,8679.0,917.474,-79.175,0.361
8765,5,8765,80,0.602,-1.313,0.477,32.183,2.148,49.532,0.18,0.59,0.51,-427.0,15.999,90771.140,917.872,-3479.283,0.6,1.660,8759.0,0.578,8759.0,917.988,-89.914,0.310
8851,5,8851,86,0.344,-1.141,0.635,32.753,2.236,50.292,0.0,0.66,0.14,-427.0,15.994,90769.609,917.451,-3527.490,0.4,2.725,8845.0,0.542,8845.0,917.568,-68.527,0.412
8941,5,8941,90,0.595,-1.406,0.585,32.695,2.236,49.853,0.17,0.61,0.82,-427.0,15.999,90770.890,918.596,-3575.32,0.2,1.811,8935.0,0.513,8935.0,917.801,-86.140,0.380
9021,5,9021,80,0.488,-1.457,0.556,31.628,2.528,49.546,0.10,0.74,0.54,-427.0,15.994,90776.539,918.292,-3618.153,0.2,2.265,9015.0,0.564,9015.0,917.591,-76.447,0.361
9106,5,9106,85,0.760,-1.887,0.535,31.511,2.776,49.649,0.7,0.82,0.80,-427.0,15.994,90774.226,918.386,-3664.273,0.1,1.915,9100.0,0.521,9100.0,917.684,-84.43,0.347
9186,5,9186,80,0.459,-1.859,0.614,31.72,2.937,49.239,0.70,0.89,0.176,-427.0,16.8,90778.593,918.315,-3711.414,0.6,1.660,9180.0,0.657,9180.0,918.198,-90.517,0.398
9266,5,9266,80,0.976,-1.629,0.678,31.306,2.776,49.795,0.94,0.109,0.105,-427.0,16.8,90777.320,918.408,-3760.278,0.7,3.543,9260.0,0.564,9260.0,917.591,-57.227,0.440
9346,5,9346,80,1.270,-2.246,0.463,30.488,2.265,50.58,0.159,0.74,0.149,-427.0,16.13,90778.343,917.895,-3803.973,0.1,2.103,9340.0,0.528,9340.0,917.497,-79.529,0.301
9426,5,9426,80,0.990,0.803,0.643,30.458,1.987,50.43,0.185,0.63,0.273,-427.0,16.17,90775.257,918.315,-3847.380,0.1,2.103,9420.0,0.556,9420.0,917.403,-80.573,0.417
9522,5,9522,96,1.83,0.782,0.650,30.517,1.841,50.248,0.138,0.41,0.108,-427.0,16.4,90772.953,917.872,-3901.314,0.3,1.766,9515.0,0.578,9515.0,917.707,-88.480,0.422
489792,2,489792,480270,0.93,0.14,0.442,8.272,20.710,45.162,0.28,0.12,0.32,-267.0,17.751,90769.460,918.609,-248978.406,0.0,1.664,489781.0,0.442,489781.0,918.213,-1009.366,0.287
489902,2,489902,110,0.71,0.7,0.377,8.389,20.871,44.884,0.25,0.12,0.31,-267.0,17.737,90770.0,918.164,-249023.500,0.4,2.964,489893.0,0.363,489893.0,917.722,-982.861,0.245
489985,2,489985,83,0.129,0.64,0.420,8.842,20.739,44.855,0.24,0.21,0.36,-267.0,17.737,90773.70,917.766,-249057.218,0.5,1.682,489976.0,0.449,489976.0,918.188,-1009.86,0.273
490067,2,490067,82,0.93,0.193,0.485,8.520,21.46,45.16,0.23,0.12,0.28,-267.0,17.746,90772.804,918.1,-249095.234,0.5,2.961,490058.0,0.477,490058.0,917.697,-983.699,0.315
490150,2,490150,83,0.93,0.35,0.355,9.17,20.403,44.446,0.25,0.21,0.33,-267.0,17.755,90776.148,918.1,-249131.921,0.10,1.542,490141.0,0.406,490141.0,918.541,-1012.558,0.231
490233,2,490233,83,0.35,0.0,0.420,8.769,21.134,44.709,0.29,0.23,0.56,-267.0,17.755,90769.460,918.305,-249168.906,0.6,3.59,490224.0,0.485,490224.0,918.26,-981.913,0.273
490316,2,490316,83,0.43,0.71,0.406,8.973,20.914,44.694,0.28,0.12,0.25,-267.0,17.764,90772.539,919.56,-249209.765,0.0,1.976,490307.0,0.499,490307.0,918.50,-1001.610,0.263
490410,2,490410,94,0.0,0.150,0.492,8.973,21.61,44.957,0.25,0.24,0.43,-267.0,17.755,90769.195,917.791,-249253.687,0.4,2.730,490401.0,0.434,490401.0,917.628,-986.815,0.319
490493,2,490493,83,0.854,0.610,10.52,9.17,20.549,45.396,0.20,0.2,0.14,-267.0,17.755,90772.539,918.1,-249284.718,0.5,1.703,490484.0,0.312,490484.0,918.50,-1008.107,6.528
490575,2,490575,82,0.150,0.7,0.449,8.900,20.783,44.650,0.23,0.24,0.47,-267.0,17.764,90767.906,918.541,-249314.500,0.1,1.914,490566.0,0.413,490566.0,918.143,-1002.628,0.291
490658,2,490658,83,0.136,0.136,0.334,8.725,21.207,44.811,0.23,0.16,0.32,-267.0,17.760,90772.273,918.330,-249351.796,0.3,2.437,490649.0,0.485,490649.0,917.839,-992.393,0.217
490741,2,490741,83,0.179,0.0,0.463,8.696,20.593,45.45,0.29,0.19,0.39,-267.0,17.755,90769.960,918.845,-249386.703,0.1,1.894,490732.0,0.355,490732.0,917.956,-1004.17,0.301
490825,2,490825,84,0.78,0.143,0.399,8.710,21.119,44.811,0.27,0.30,0.47,-267.0,17.769,90766.882,917.839,-249420.125,0.7,3.717,490815.0,0.449,490815.0,917.324,-973.158,0.259
490918,2,490918,93,0.129,0.14,0.492,8.520,20.871,44.636,0.20,0.18,0.34,-267.0,17.760,90769.195,918.448,-249462.15,0.6,1.612,490909.0,0.442,490909.0,917.956,-1010.654,0.319
491001,2,491001,83,0.129,0.28,0.348,9.149,21.46,45.132,0.24,0.19,0.34,-267.0,17.764,90771.250,918.658,-249501.93,0.0,2.24,490992.0,0.499,490992.0,917.932,-1000.422,0.226
491083,2,491083,82,0.21,0.28,0.463,9.76,20.871,44.752,0.24,0.16,0.30,-267.0,17.769,90773.296,918.26,-249539.703,0.0,1.976,491074.0,0.442,491074.0,917.956,-1001.79,0.301
491166,2,491166,83,0.14,0.43,0.521,8.535,20.929,44.314,0.28,0.18,0.37,-267.0,17.769,90772.539,918.143,-249575.203,0.2,1.842,491157.0,0.413,491157.0,918.143,-1004.748,0.338
491249,2,491249,83,0.14,0.150,0.391,9.193,21.353,45.74,0.24,0.11,0.33,-267.0,17.760,90767.640,917.839,-249609.812,0.0,1.976,491240.0,0.420,491240.0,918.167,-1001.907,0.254
491332,2,491332,83,0.28,0.28,0.413,7.848,20.593,44.709,0.25,0.20,0.38,-267.0,17.778,90771.250,918.354,-249645.906,0.7,3.554,491323.0,0.449,491323.0,917.559,-975.60,0.268
491425,2,491425,93,0.35,0.28,0.477,8.330,20.914,44.475,0.27,0.15,0.38,-267.0,17.755,90768.929,917.722,-249686.15,0.5,1.649,491416.0,0.413,491416.0,918.98,-1009.416,0.310
491508,2,491508,83,0.28,0.7,0.391,9.237,20.841,44.665,0.25,0.10,0.36,-267.0,17.769,90768.929,918.167,-249719.437,0.3,2.350,491499.0,0.391,491499.0,917.839,-993.498,0.254
491590,2,491590,82,0.7,0.14,0.406,8.652,20.681,45.162,0.27,0.18,0.48,-267.0,17.769,90774.593,918.260,-249753.625,0.6,1.649,491581.0,0.442,491581.0,918.379,-1009.575,0.263
491673,2,491673,83,0.14,0.122,0.456,9.3,20.344,44.197,0.23,0.8,0.43,-267.0,17.778,90768.929,918.354,-249790.609,0.6,3.64,491664.0,0.449,491664.0,917.863,-981.806,0.296
491756,2,491756,83,0.28,0.7,0.434,8.915,20.578,44.621,0.23,0.20,0.36,-267.0,17.769,90768.664,918.589,-249831.468,0.7,1.612,491747.0,0.535,491747.0,918.496,-1010.111,0.282
491841,2,491841,85,0.28,0.7,0.399,8.915,21.353,44.256,0.28,0.24,0.40,-267.0,17.778,90770.718,918.472,-249871.15,0.8,4.650,491831.0,0.406,491831.0,917.770,-962.988,0.259
491950,2,491950,109,0.35,0.21,0.463,8.667,20.973,44.533,0.29,0.19,0.35,-267.0,17.760,90770.226,918.213,-249918.62,0.4,1.660,491941.0,0.449,491941.0,918.285,-1009.138,0.301
492033,2,492033,83,-1.808,0.71,0.463,8.944,20.827,44.884,0.32,0.18,0.40,-267.0,17.764,90774.859,917.815,-249955.656,0.0,2.24,492024.0,0.456,492024.0,918.260,-999.789,0.301
492116,2,492116,83,0.64,0.71,0.377,8.886,20.827,44.972,0.22,0.15,0.28,-267.0,17.769,90768.929,918.354,-249993.546,0.3,2.436,492107.0,0.456,492107.0,917.956,-991.978,0.245
492199,2,492199,83,0.35,0.21,0.399,8.389,20.330,44.782,0.19,0.18,0.31,-267.0,17.769,90763.7,918.776,-250031.437,0.4,1.739,492190.0,0.456,492190.0,918.309,-1007.307,0.259
492282,2,492282,83,0.57,0.7,0.449,8.345,20.301,45.483,0.32,0.25,0.39,-267.0,17.774,90772.273,918.50,-250065.156,0.5,2.728,492273.0,0.355,492273.0,917.887,-987.14,0.291
492364,2,492364,82,0.21,0.100,0.363,8.637,20.564,44.782,0.26,0.10,0.34,-267.0,17.778,90775.351,918.167,-250097.281,0.4,1.715,492355.0,0.427,492355.0,918.285,-1007.633,0.235
492458,2,492458,94,0.57,0.129,0.377,8.886,20.739,45.1,0.28,0.18,0.39,-267.0,17.769,90772.273,918.472,-250138.843,0.7,4.348,492449.0,0.456,492449.0,917.583,-965.696,0.245
492541,2,492541,83,0.78,0.57,0.363,9.631,20.754,45.264,0.30,0.21,0.51,-267.0,17.774,90767.640,918.50,-250173.750,0.5,1.670,492532.0,0.384,492532.0,918.75,-1009.243,0.235
492624,2,492624,83,0.78,0.21,0.377,8.184,21.148,45.323,0.25,0.16,0.21,-267.0,17.778,90773.296,918.379,-250206.281,0.2,2.230,492615.0,0.399,492615.0,917.887,-995.820,0.245
492707,2,492707,83,0.93,0.21,0.391,8.462,20.213,45.425,0.25,0.18,0.38,-267.0,17.778,90768.398,918.707,-250239.703,0.0,2.0,492698.0,0.406,492698.0,917.887,-1000.208,0.254
492790,2,492790,83,0.122,0.86,0.348,8.915,20.461,45.249,0.29,0.25,0.41,-267.0,17.783,90769.687,918.731,-250274.312,0.11,1.509,492781.0,0.427,492781.0,918.848,-1013.127,0.226
492873,2,492873,83,0.28,0.114,0.341,9.47,20.505,45.235,0.27,0.14,0.38,-267.0,17.783,90770.718,918.707,-250309.93,0.7,3.722,492863.0,0.420,492863.0,918.216,-973.379,0.221
492966,2,492966,93,0.0,0.208,0.406,8.842,20.827,45.264,0.20,0.15,0.36,-267.0,17.774,90768.664,918.682,-250347.281,0.3,2.489,492957.0,0.391,492957.0,917.887,-991.340,0.263
493049,2,493049,83,0.100,0.35,0.377,8.579,20.476,45.1,0.21,0.19,0.24,-267.0,17.778,90774.328,918.707,-250382.187,0.10,1.542,493040.0,0.449,493040.0,918.731,-1012.919,0.245
493132,2,493132,83,0.21,0.71,0.434,8.886,20.651,45.279,0.29,0.21,0.37,-267.0,17.778,90773.296,918.589,-250420.375,0.6,3.170,493123.0,0.470,493123.0,918.192,-980.470,0.282
493215,2,493215,83,0.57,0.93,0.348,8.38,20.900,44.840,0.29,0.22,0.36,-267.0,17.783,90771.742,918.707,-250454.93,0.0,1.976,493206.0,0.341,493206.0,918.216,-1001.562,0.226
493298,2,493298,83,0.43,0.114,0.427,8.900,20.681,45.147,0.26,0.18,0.31,-267.0,17.783,90767.109,918.192,-250483.46,0.3,1.766,493289.0,0.355,493289.0,918.520,-1006.287,0.277
493380,2,493380,82,0.50,0.21,0.456,8.842,20.564,45.103,0.32,0.15,0.40,-267.0,17.788,90773.789,918.309,-250510.765,0.8,4.348,493371.0,0.320,493371.0,917.818,-965.958,0.296
493473,2,493473,93,0.7,0.100,0.434,8.184,20.461,45.45,0.20,0.19,0.26,-267.0,17.778,90770.984,918.285,-250544.875,0.1,2.132,493464.0,0.413,493464.0,917.701,-997.955,0.282
493556,2,493556,83,0.21,0.14,0.384,8.257,21.31,44.826,0.25,0.12,0.33,-267.0,17.778,90775.351,919.11,-250583.62,0.6,1.660,493547.0,0.506,493547.0,918.216,-1009.888,0.249
493639,2,493639,83,0.21,0.28,0.377,8.900,20.710,44.548,0.26,0.17,0.47,-267.0,17.783,90767.109,918.496,-250620.359,0.3,2.437,493630.0,0.391,493630.0,917.911,-992.443,0.245
493722,2,493722,83,0.35,0.114,0.312,8.871,20.257,44.606,0.20,0.14,0.21,-267.0,17.788,90768.398,918.192,-250657.359,0.2,1.842,493713.0,0.499,493713.0,918.98,-1005.5,0.203
493805,2,493805,83,0.100,0.14,0.492,8.740,20.476,44.752,0.24,0.26,0.46,-267.0,17.792,90761.179,918.98,-250697.921,0.0,1.975,493796.0,0.477,493796.0,918.123,-1001.878,0.319
493893,2,493893,88,0.14,0.86,0.399,8.725,21.61,44.519,0.27,0.15,0.27,-267.0,17.783,90771.742,918.309,-250732.328,0.4,2.660,493883.0,0.312,493883.0,917.725,-987.580,0.259
494010,2,494010,117,0.28,0.50,0.377,8.871,20.651,44.606,0.27,0.17,0.38,-267.0,17.764,90771.515,917.722,-250776.31,0.3,1.715,494001.0,0.427,494001.0,918.123,-1007.847,0.245
494093,2,494093,83,0.0,0.7,0.377,9.178,20.330,44.709,0.28,0.20,0.36,-267.0,17.774,90767.375,917.956,-250809.750,0.4,2.545,494084.0,0.384,494084.0,917.770,-990.116,0.245
494175,2,494175,82,0.28,0.78,0.434,8.608,20.783,45.249,0.25,0.16,0.29,-267.0,17.783,90775.351,918.192,-250843.359,0.0,1.976,494166.0,0.434,494166.0,917.794,-1002.75,0.282
494258,2,494258,83,0.14,0.129,0.420,8.754,20.885,45.439,0.22,0.20,0.36,-267.0,17.783,90772.765,918.496,-250878.859,0.1,1.895,494249.0,0.420,494249.0,917.911,-1003.760,0.273
494341,2,494341,83,0.7,0.21,0.399,8.272,21.148,44.855,0.20,0.18,0.26,-267.0,17.788,90775.85,917.677,-250912.281,0.2,2.265,494332.0,0.384,494332.0,917.701,-995.317,0.259
494424,2,494424,83,0.35,0.35,0.370,9.573,20.461,44.884,0.27,0.20,0.41,-267.0,17.792,90770.453,918.520,-250947.781,0.6,1.649,494415.0,0.470,494415.0,918.240,-1009.546,0.240
494518,2,494518,94,0.43,0.43,0.449,9.500,20.520,45.191,0.28,0.14,0.36,-267.0,17.783,90767.109,918.403,-250987.312,0.0,2.0,494509.0,0.370,494509.0,918.240,-1000.623,0.291
494601,2,494601,83,0.14,0.7,0.463,8.667,20.111,45.586,0.23,0.13,0.42,-267.0,17.788,90767.109,918.520,-251021.328,0.1,2.165,494592.0,0.449,494592.0,918.98,-997.257,0.301
494683,2,494683,82,0.71,0.35,0.434,8.550,20.798,45.439,0.28,0.18,0.36,-267.0,17.797,90776.109,918.824,-251056.703,0.2,2.229,494674.0,0.413,494674.0,917.911,-995.699,0.282
494766,2,494766,83,0.35,0.14,0.406,8.769,20.447,44.826,0.25,0.15,0.36,-267.0,17.792,90769.421,918.427,-251086.843,0.1,2.102,494757.0,0.312,494757.0,917.818,-999.610,0.263
494849,2,494849,83,0.50,0.7,0.377,8.710,20.914,44.869,0.24,0.16,0.43,-267.0,17.788,90764.523,918.427,-251118.468,0.2,1.825,494840.0,0.449,494840.0,918.29,-1005.97,0.245
494933,2,494933,84,0.71,0.43,0.434,8.593,20.315,45.264,0.29,0.20,0.37,-267.0,17.792,90775.85,918.309,-251150.390,0.0,2.0,494923.0,0.320,494923.0,918.29,-1001.446,0.282
495025,2,495025,92,0.7,0.165,0.363,9.47,20.695,44.869,0.24,0.13,0.37,-267.0,17.788,90767.109,918.403,-251183.500,0.2,1.826,495016.0,0.391,495016.0,918.240,-1005.110,0.235
495108,2,495108,83,0.186,0.7,0.463,8.360,20.929,45.235,0.25,0.20,0.38,-267.0,17.792,90767.109,918.544,-251218.703,0.1,2.132,495099.0,0.456,495099.0,918.123,-998.420,0.301
495190,2,495190,82,0.14,0.28,0.399,8.769,21.558,44.913,0.24,0.18,0.34,-267.0,17.797,90765.812,918.520,-251256.718,0.9,1.571,495181.0,0.470,495181.0,918.873,-1011.103,0.259
495273,2,495273,83,0.57,0.50,0.456,9.602,20.841,45.293,0.26,0.15,0.41,-267.0,17.792,90771.742,918.427,-251255.281,0.7,3.722,495264.0,0.505,495264.0,918.240,-973.117,0.296
495356,2,495356,83,0.43,0.35,0.406,9.353,21.514,44.972,0.29,0.23,0.42,-267.0,17.792,90769.156,918.334,-251251.765,0.6,3.61,495347.0,0.420,495347.0,917.725,-981.862,0.263
495439,2,495439,83,0.21,0.150,0.413,9.441,21.265,45.74,0.23,0.15,0.36,-267.0,17.802,90766.843,918.544,-251285.484,0.9,1.549,495430.0,0.391,495430.0,918.544,-1012.32,0.268
495532,2,495532,93,0.7,0.57,0.535,9.76,21.75,44.826,0.25,0.24,0.42,-267.0,17.792,90776.375,918.309,-251322.593,0.4,2.660,495523.0,0.406,495523.0,918.147,-987.978,0.347
495615,2,495615,83,0.43,0.7,0.477,9.207,21.46,44.972,0.24,0.13,0.30,-267.0,17.792,90764.523,918.216,-251356.312,0.3,2.488,495606.0,0.406,495606.0,917.818,-991.505,0.310
495697,2,495697,82,0.28,0.100,0.485,9.61,20.374,44.606,0.27,0.16,0.41,-267.0,17.802,90764.523,918.123,-251388.156,0.4,1.752,495688.0,0.370,495688.0,918.147,-1007.41,0.315
495780,2,495780,83,0.14,0.28,0.420,8.813,21.61,44.972,0.29,0.20,0.41,-299.0,17.797,90775.843,918.520,-251421.578,0.1,2.132,495771.0,0.434,495771.0,918.29,-997.898,0.273
495863,2,495863,83,0.21,0.100,0.442,8.140,20.695,44.738,0.22,0.18,0.35,-267.0,17.806,90770.179,917.701,-251457.968,0.7,1.612,495854.0,0.442,495854.0,918.662,-1011.73,0.287
495948,2,495948,85,1.801,0.14,0.449,8.798,20.724,44.840,0.26,0.20,0.29,-267.0,17.792,90770.179,918.216,-251493.906,0.3,2.437,495938.0,0.413,495938.0,918.358,-992.213,0.291
496057,2,496057,109,-1.694,0.100,0.391,9.61,21.17,44.943,0.31,0.5,0.33,-267.0,17.778,90773.31,918.589,-251540.562,0.0,2.0,496048.0,0.434,496048.0,918.358,-1001.27,0.254
496140,2,496140,83,0.28,0.114,0.449,8.973,20.491,44.869,0.29,0.14,0.43,-267.0,17.788,90769.421,918.427,-251575.468,0.2,2.306,496131.0,0.406,496131.0,918.123,-995.145,0.291
496223,2,496223,83,0.35,0.7,0.370,9.237,20.768,44.752,0.26,0.17,0.33,-267.0,17.802,90773.789,918.334,-251607.390,0.1,1.895,496214.0,0.363,496214.0,918.240,-1003.214,0.240
496306,2,496306,83,0.7,0.43,0.413,9.149,20.564,45.45,0.25,0.17,0.26,-267.0,17.797,90771.476,918.123,-251639.921,0.7,3.722,496297.0,0.420,496297.0,917.607,-972.802,0.268
496389,2,496389,83,0.14,0.14,0.355,8.783,20.885,45.732,0.21,0.20,0.31,-267.0,17.802,90767.867,918.123,-251674.828,0.11,1.509,496380.0,0.420,496380.0,918.568,-1013.713,0.231
496471,2,496471,82,0.50,0.35,0.427,9.602,21.46,45.235,0.28,0.20,0.44,-267.0,17.797,90767.867,917.514,-251708.140,0.15,-3.166,496462.0,0.391,496462.0,917.328,-980.379,0.277
496565,2,496565,94,0.14,0.28,0.463,8.740,20.403,44.709,0.25,0.18,0.27,-267.0,17.797,90769.156,917.911,-251746.656,0.8,1.549,496556.0,0.427,496556.0,918.147,-1012.329,0.301
496648,2,496648,83,0.7,0.107,0.456,8.550,20.739,44.884,0.26,0.18,0.42,-267.0,17.797,90765.812,917.607,-251779.187,0.7,3.722,496639.0,0.355,496639.0,917.514,-973.427,0.296
496731,2,496731,83,0.21,0.179,0.463,8.447,20.724,44.899,0.24,0.18,0.38,-267.0,17.806,90767.867,918.240,-251809.31,0.6,1.649,496722.0,0.363,496722.0,918.54,-1009.434,0.301
496814,2,496814,83,0.71,0.0,0.413,8.871,20.856,45.103,0.25,0.14,0.29,-267.0,17.802,90776.867,918.779,-251840.359,0.1,1.894,496805.0,0.391,496805.0,918.171,-1003.293,0.268
496897,2,496897,83,0.50,0.28,0.485,8.418,20.169,45.235,0.28,0.21,0.45,-267.0,17.792,90765.546,918.358,-251871.93,0.1,1.894,496888.0,0.348,496888.0,918.289,-1002.987,0.315
496980,2,496980,83,0.7,0.0,0.363,8.710,20.534,45.176,0.25,0.19,0.33,-267.0,17.806,90774.554,918.966,-251902.46,0.7,3.722,496970.0,0.406,496970.0,917.656,-972.470,0.235
497073,2,497073,93,0.43,0.7,0.456,8.973,20.681,44.489,0.26,0.20,0.36,-267.0,17.797,90772.500,918.873,-251941.578,0.7,1.579,497064.0,0.434,497064.0,918.382,-1011.482,0.296
497156,2,497156,83,0.21,0.114,0.413,8.433,20.827,44.782,0.26,0.16,0.29,-267.0,17.806,90774.820,918.756,-251977.78,0.2,2.308,497147.0,0.420,497147.0,918.147,-994.334,0.268
497239,2,497239,83,0.107,0.0,0.434,8.959,19.921,45.206,0.24,0.18,0.42,-267.0,17.802,90768.890,917.397,-252011.687,0.3,2.388,497230.0,0.413,497230.0,917.867,-993.435,0.282
497322,2,497322,83,0.28,0.21,0.391,8.857,21.90,44.533,0.29,0.24,0.34,-267.0,17.806,90772.234,917.935,-252042.125,0.7,1.612,497313.0,0.320,497313.0,918.499,-1010.648,0.254
497405,2,497405,83,0.35,0.107,0.528,9.120,20.447,45.483,0.24,0.14,0.24,-267.0,17.806,90771.210,918.451,-252071.375,0.10,7.375,497396.0,0.384,497396.0,917.656,-942.409,0.343
497487,2,497487,82,0.100,0.71,0.434,8.930,20.228,45.366,0.25,0.18,0.38,-267.0,17.815,90771.210,918.240,-252104.687,0.7,1.612,497478.0,0.427,497478.0,918.289,-1010.545,0.282
497580,2,497580,93,0.93,0.129,0.413,9.47,20.958,45.673,0.23,0.15,0.34,-267.0,17.797,90770.179,918.427,-252143.796,0.2,2.267,497571.0,0.413,497571.0,918.78,-995.746,0.268
497663,2,497663,83,0.28,0.35,0.391,8.871,20.534,45.220,0.22,0.10,0.26,-267.0,17.806,90780.476,918.637,-252179.890,0.5,2.806,497654.0,0.456,497654.0,917.632,-986.87,0.254
497746,2,497746,83,0.64,0.21,0.399,9.76,20.81,44.694,0.30,0.18,0.40,-267.0,17.811,90771.210,917.750,-252215.984,0.2,2.228,497737.0,0.413,497737.0,917.445,-995.785,0.259
497829,2,497829,83,0.35,0.0,0.341,8.447,21.90,45.1,0.32,0.15,0.30,-267.0,17.806,90766.570,918.358,-252254.468,0.6,1.649,497820.0,0.513,497820.0,917.984,-1009.521,0.221
497912,2,497912,83,0.64,0.57,0.413,8.608,20.783,44.767,0.25,0.15,0.37,-267.0,17.815,90769.914,919.109,-252290.265,0.0,2.24,497903.0,0.348,497903.0,917.961,-1001.143,0.268
498001,2,498001,89,0.50,0.28,0.449,8.988,20.768,45.176,0.24,0.21,0.47,-267.0,17.811,90779.187,918.147,-252325.375,0.2,2.267,497991.0,0.449,497991.0,917.750,-995.536,0.291
498111,2,498111,110,0.50,0.14,0.406,9.61,20.622,45.776,0.29,0.21,0.34,-267.0,17.797,90772.765,918.520,-252375.250,0.6,1.571,498102.0,0.449,498102.0,918.499,-1012.37,0.263
498194,2,498194,83,0.21,0.21,0.370,9.295,20.944,45.206,0.24,0.18,0.35,-267.0,17.797,90770.179,918.5,-252409.265,0.0,2.50,498185.0,0.370,498185.0,918.451,-999.976,0.240
498276,2,498276,82,0.50,0.21,0.456,8.900,20.710,44.913,0.27,0.17,0.36,-267.0,17.802,90774.820,918.568,-252441.109,0.7,3.405,498267.0,0.406,498267.0,917.867,-977.220,0.296
498359,2,498359,83,0.21,0.78,0.298,9.792,20.768,44.884,0.24,0.14,0.32,-267.0,17.811,90769.914,918.54,-252474.828,0.2,1.842,498350.0,0.406,498350.0,918.54,-1004.853,0.193
498442,2,498442,83,0.43,0.93,0.542,9.3,20.973,44.972,0.22,0.18,0.39,-267.0,17.815,90772.234,918.358,-252526.125,0.2,2.229,498433.0,0.829,498433.0,917.867,-995.658,0.352
498525,2,498525,83,0.14,0.78,0.449,8.535,21.660,45.118,0.21,0.19,0.41,-267.0,17.815,90768.625,918.264,-252578.906,0.2,1.825,498516.0,0.442,498516.0,918.78,-1004.871,0.291
498619,2,498619,94,0.7,0.28,0.399,9.660,20.871,45.337,0.27,0.19,0.34,-267.0,17.815,90770.179,918.240,-252616.750,0.3,1.752,498610.0,0.363,498610.0,918.406,-1006.270,0.259
498702,2,498702,83,0.78,0.114,0.391,9.120,20.914,45.410,0.26,0.17,0.36,-267.0,17.811,90769.914,918.451,-252648.78,0.3,2.350,498693.0,0.391,498693.0,918.147,-993.529,0.254
498784,2,498784,82,0.28,0.165,0.442,9.90,20.812,45.352,0.25,0.16,0.30,-267.0,17.811,90769.914,918.171,-252680.203,0.1,1.875,498775.0,0.391,498775.0,918.289,-1004.481,0.287
498867,2,498867,83,0.35,0.64,0.334,9.105,21.192,45.366,0.26,0.23,0.32,-267.0,17.815,90773.257,918.264,-252712.125,0.3,1.766,498858.0,0.377,498858.0,918.593,-1006.104,0.217
498950,2,498950,83,0.28,0.21,0.434,9.792,20.564,45.176,0.25,0.20,0.33,-267.0,17.815,90767.601,918.171,-252743.156,0.8,4.650,498941.0,0.370,498941.0,917.867,-963.599,0.282
499034,2,499034,84,0.14,0.71,0.355,10.55,20.841,45.293,0.25,0.17,0.33,-267.0,17.811,90769.914,917.656,-252775.375,0.3,2.437,499024.0,0.406,499024.0,917.562,-991.865,0.231
499126,2,499126,92,0.28,0.21,0.399,9.500,21.455,44.826,0.25,0.16,0.34,-267.0,17.811,90771.210,917.935,-252814.156,0.12,1.465,499117.0,0.427,499117.0,918.710,-1014.950,0.259
499209,2,499209,83,0.7,0.86,0.528,9.719,20.929,44.986,0.24,0.17,0.27,-267.0,17.815,90774.554,917.750,-252850.546,0.5,2.805,499200.0,0.449,499200.0,918.264,-985.964,0.343
499291,2,499291,82,0.14,0.14,0.341,9.587,21.251,45.396,0.23,0.19,0.44,-267.0,17.820,90773.257,918.264,-252887.93,0.2,1.809,499282.0,0.442,499282.0,918.499,-1005.123,0.221
499374,2,499374,83,0.21,0.21,0.413,8.930,21.528,45.293,0.28,0.19,0.39,-267.0,17.820,90767.601,917.843,-252924.78,0.6,3.61,499365.0,0.449,499365.0,917.984,-982.56,0.268
499457,2,499457,83,0.7,0.86,0.399,9.120,21.178,45.571,0.26,0.15,0.34,-267.0,17.820,90774.281,918.171,-252958.687,0.1,1.895,499448.0,0.384,499448.0,918.101,-1003.474,0.259
499540,2,499540,83,0.0,0.7,0.399,9.149,21.192,45.45,0.24,0.15,0.33,-267.0,17.820,90773.257,917.750,-252990.609,0.1,2.132,499531.0,0.384,499531.0,917.984,-997.335,0.259
499633,2,499633,93,0.14,0.28,0.391,9.719,20.768,45.16,0.24,0.19,0.34,-267.0,17.806,90768.890,918.147,-253025.375,0.0,2.0,499624.0,0.363,499624.0,917.984,-1000.235,0.254
499716,2,499716,83,0.35,0.0,0.485,9.295,20.783,45.527,0.29,0.22,0.34,-267.0,17.815,90767.867,918.382,-253058.203,0.0,2.0,499707.0,0.427,499707.0,917.984,-1000.758,0.315
499798,2,499798,82,0.64,0.7,0.391,8.813,20.871,45.527,0.24,0.18,0.33,-267.0,17.815,90766.304,918.382,-253092.93,0.5,2.730,499789.0,0.399,499789.0,917.562,-986.878,0.254
499881,2,499881,83,0.21,0.35,0.305,9.237,20.885,45.746,0.26,0.12,0.40,-267.0,17.820,90774.281,917.961,-253123.718,0.2,1.825,499872.0,0.363,499872.0,917.773,-1004.826,0.198
499964,2,499964,83,0.21,0.28,0.413,9.514,21.178,45.688,0.26,0.20,0.29,-267.0,17.815,90771.968,917.961,-253154.156,0.1,1.894,499955.0,0.370,499955.0,917.892,-1003.282,0.268
500049,2,500049,85,0.21,0.86,0.449,8.944,21.397,45.132,0.24,0.18,0.33,-267.0,17.825,90771.968,919.15,-253186.468,0.2,2.268,500039.0,0.399,500039.0,917.680,-995.317,0.291
500158,2,500158,109,0.21,0.50,0.391,8.783,20.534,45.1,0.21,0.17,0.32,-267.0,17.802,90774.820,918.544,-253229.968,0.2,1.752,500149.0,0.391,500149.0,918.9,-1007.313,0.254
500241,2,500241,83,0.28,0.57,0.420,9.427,20.929,45.425,0.26,0.26,0.36,-267.0,17.806,90768.890,918.264,-253263.93,0.2,2.199,500232.0,0.406,500232.0,917.843,-996.991,0.273
500324,2,500324,83,0.35,0.78,0.463,9.32,21.134,45.483,0.25,0.20,0.41,-267.0,17.811,90770.945,918.568,-253296.515,0.3,1.794,500315.0,0.399,500315.0,918.101,-1005.625,0.301
500407,2,500407,83,0.21,0.64,0.485,9.295,21.46,45.118,0.23,0.14,0.28,-267.0,17.820,90774.281,918.289,-253331.718,0.2,1.824,500398.0,0.449,500398.0,918.314,-1004.540,0.315
500490,2,500490,83,0.57,0.93,0.420,9.163,20.520,45.249,0.23,0.17,0.33,-267.0,17.825,90774.554,918.54,-253365.734,0.2,2.269,500481.0,0.370,500481.0,918.101,-995.723,0.273
500572,2,500572,82,0.28,0.143,0.420,9.222,20.929,45.103,0.30,0.17,0.38,-267.0,17.825,90772.992,918.499,-253393.453,0.2,2.265,500563.0,0.305,500563.0,917.892,-994.922,0.273
500666,2,500666,94,0.21,0.21,0.420,8.550,20.885,45.103,0.28,0.15,0.37,-267.0,17.811,90771.968,918.406,-253424.890,0.2,1.826,500657.0,0.363,500657.0,918.101,-1004.533,0.273
500749,2,500749,83,0.28,0.14,0.363,8.798,20.958,45.191,0.27,0.21,0.38,-267.0,17.815,90774.281,918.358,-253457.109,0.2,2.306,500740.0,0.413,500740.0,917.867,-994.542,0.235
500832,2,500832,83,0.43,0.93,0.420,9.47,20.608,45.103,0.28,0.16,0.39,-267.0,17.820,90767.335,917.843,-253490.531,0.0,1.975,500823.0,0.391,500823.0,917.892,-1000.671,0.273
500915,2,500915,83,0.21,0.71,0.363,8.710,20.944,45.103,0.22,0.18,0.33,-267.0,17.829,90773.257,918.289,-253525.140,0.1,1.894,500906.0,0.442,500906.0,918.9,-1003.70,0.235
500998,2,500998,83,0.0,0.43,0.427,9.134,20.754,45.571,0.24,0.14,0.36,-267.0,17.825,90771.968,918.78,-253559.156,0.1,1.915,500989.0,0.377,500989.0,918.101,-1003.7,0.277
501081,2,501081,83,0.28,0.50,0.463,9.149,21.90,44.986,0.24,0.16,0.36,-267.0,17.825,90774.15,918.195,-253589.234,0.2,1.809,501071.0,0.355,501071.0,918.337,-1005.659,0.301
501174,2,501174,93,0.28,0.93,0.449,9.500,20.885,45.16,0.28,0.17,0.33,-267.0,17.815,90770.945,918.289,-253622.15,0.6,3.722,501165.0,0.341,501165.0,917.705,-972.238,0.291
501257,2,501257,83,0.93,0.28,0.413,8.418,20.432,45.132,0.22,0.20,0.29,-267.0,17.820,90769.648,918.54,-253656.625,0.4,1.715,501248.0,0.492,501248.0,918.101,-1008.357,0.268
501340,2,501340,83,0.28,1.823,0.384,8.550,20.593,44.899,0.25,0.14,0.38,-267.0,17.825,90767.335,918.382,-253695.109,0.2,2.265,501331.0,0.434,501331.0,917.892,-995.858,0.249
501423,2,501423,83,0.0,0.86,0.327,9.3,20.856,45.366,0.30,0.18,0.32,-267.0,17.834,90766.39,918.289,-253728.234,0.6,3.61,501414.0,0.363,501414.0,917.377,-982.434,0.212
501506,2,501506,83,0.50,0.64,0.413,8.740,20.798,45.323,0.30,0.19,0.36,-267.0,17.829,90775.312,918.289,-253761.656,0.7,1.621,501497.0,0.442,501497.0,917.984,-1010.757,0.268
501588,2,501588,82,-1.536,-4.113,-4.2,9.339,20.944,45.688,0.25,0.11,0.36,-267.0,17.825,90770.671,918.406,-253204.859,0.0,1.975,501579.0,14.22,501579.0,918.9,-1002.421,-2.599
501681,2,501681,93,0.43,0.0,0.434,9.339,21.2,44.723,0.27,0.16,0.32,-267.0,17.825,90778.921,918.264,-252572.31,0.4,2.728,501672.0,0.413,501672.0,917.588,-986.381,0.282
501764,2,501764,83,0.43,0.143,0.355,9.251,21.134,44.869,0.26,0.15,0.40,-267.0,17.825,90775.312,918.499,-252607.234,0.3,1.766,501755.0,0.434,501755.0,917.892,-1006.810,0.231
501847,2,501847,83,0.57,0.14,0.399,9.397,21.75,45.293,0.26,0.18,0.40,-267.0,17.829,90769.648,918.406,-252644.828,0.1,1.894,501838.0,0.470,501838.0,918.9,-1003.368,0.259
501930,2,501930,83,0.28,0.50,0.384,9.412,21.455,45.498,0.27,0.21,0.35,-267.0,17.825,90772.992,918.314,-252682.421,0.0,2.0,501921.0,0.434,501921.0,918.9,-1001.373,0.249
502013,2,502013,83,0.28,0.71,0.449,8.740,20.622,45.688,0.22,0.22,0.30,-267.0,17.834,90767.62,918.617,-252716.734,0.1,2.103,502004.0,0.391,502004.0,917.916,-999.201,0.291
502103,2,502103,90,0.86,0.0,0.492,8.842,20.929,45.176,0.24,0.17,0.36,-267.0,17.820,90775.312,918.499,-252754.796,0.6,1.621,502093.0,0.463,502093.0,918.524,-1010.151,0.319
502213,2,502213,110,0.21,0.71,0.427,8.725,20.812,45.673,0.26,0.17,0.35,-267.0,17.806,90771.210,918.662,-252802.671,0.0,2.103,502204.0,0.399,502204.0,918.431,-998.501,0.277
502296,2,502296,83,0.0,0.93,0.449,9.105,21.178,45.337,0.28,0.16,0.39,-267.0,17.811,90770.671,918.593,-252838.765,0.1,2.165,502287.0,0.470,502287.0,918.289,-998.9,0.291
502378,2,502378,82,0.93,0.100,0.413,8.637,20.914,45.659,0.24,0.17,0.37,-267.0,17.829,90767.335,918.499,-252876.484,0.2,1.809,502369.0,0.449,502369.0,918.524,-1005.319,0.268
502461,2,502461,83,0.50,0.21,0.391,8.623,20.900,45.542,0.23,0.16,0.34,-267.0,17.825,90763.718,918.101,-252909.906,0.1,2.103,502452.0,0.355,502452.0,918.431,-998.350,0.254
502544,2,502544,83,0.14,0.122,0.427,8.725,20.520,45.469,0.22,0.15,0.35,-267.0,17.834,90768.359,918.289,-252942.125,0.5,2.728,502535.0,0.420,502535.0,918.9,-987.183,0.277
502627,2,502627,83,0.14,0.64,0.370,8.827,20.871,45.571,0.24,0.13,0.33,-267.0,17.829,90763.718,918.314,-252975.843,0.4,2.660,502618.0,0.391,502618.0,917.611,-988.220,0.240
502721,2,502721,94,0.43,0.107,0.413,8.608,21.46,45.571,0.27,0.16,0.34,-267.0,17.820,90768.359,918.289,-253012.0,0.4,1.703,502712.0,0.377,502712.0,918.33,-1008.151,0.268
502804,2,502804,83,0.14,0.28,0.377,8.740,20.578,46.126,0.25,0.18,0.42,-267.0,17.820,90772.992,917.984,-253046.609,0.0,1.935,502795.0,0.456,502795.0,918.101,-1002.202,0.245
502886,2,502886,82,0.43,0.28,0.406,8.403,20.841,45.89,0.26,0.18,0.36,-267.0,17.825,90771.703,918.101,-253084.31,0.2,1.809,502877.0,0.456,502877.0,918.337,-1005.414,0.263
502969,2,502969,83,0.7,0.35,0.456,8.930,21.104,45.366,0.24,0.23,0.36,-267.0,17.834,90770.671,918.617,-253121.15,0.2,2.229,502960.0,0.434,502960.0,918.151,-995.632,0.296
503052,2,503052,83,0.43,0.0,0.449,9.602,20.798,45.191,0.26,0.20,0.37,-267.0,17.834,90770.671,918.524,-253153.234,0.5,2.805,503043.0,0.341,503043.0,917.705,-986.45,0.291
503136,2,503136,84,0.35,0.93,0.363,9.339,21.236,45.527,0.24,0.18,0.36,-267.0,17.834,90771.703,918.101,-253184.562,0.2,1.825,503126.0,0.413,503126.0,917.916,-1004.920,0.235
503228,2,503228,92,0.50,0.71,0.442,9.397,20.666,45.176,0.28,0.14,0.37,-267.0,17.820,90775.312,917.562,-253222.671,0.1,1.895,503219.0,0.406,503219.0,918.33,-1003.358,0.287
503311,2,503311,83,0.35,0.122,0.420,9.324,20.885,44.723,0.23,0.11,0.36,-267.0,17.825,90772.992,918.220,-253257.281,0.5,2.802,503302.0,0.427,503302.0,917.588,-985.593,0.273
503393,2,503393,82,0.35,0.14,0.341,9.193,20.578,45.59,0.25,0.13,0.30,-267.0,17.839,90766.796,918.314,-253292.359,0.5,1.691,503384.0,0.427,503384.0,918.33,-1008.759,0.221
503476,2,503476,83,0.35,0.50,0.477,9.353,20.783,45.235,0.25,0.16,0.35,-267.0,17.829,90769.382,918.524,-253326.78,0.6,1.659,503467.0,0.384,503467.0,918.548,-1009.503,0.310
503559,2,503559,83,0.7,0.21,0.384,9.149,21.236,45.513,0.29,0.16,0.35,-267.0,17.829,90772.726,918.101,-253358.609,0.10,12.417,503550.0,0.399,503550.0,917.636,-918.951,0.249
503642,2,503642,83,0.14,0.78,0.492,8.184,21.294,45.249,0.27,0.18,0.38,-267.0,17.839,90764.484,917.892,-253391.734,0.3,1.781,503633.0,0.399,503633.0,917.916,-1006.5,0.319
503735,2,503735,93,0.35,0.43,0.384,8.477,20.856,44.884,0.24,0.19,0.35,-267.0,17.829,90771.703,917.984,-253434.515,0.4,1.691,503726.0,0.521,503726.0,918.361,-1008.343,0.249
503818,2,503818,83,0.28,0.35,0.370,8.316,20.505,45.1,0.25,0.15,0.32,-267.0,17.839,90763.718,918.617,-253474.187,0.2,2.307,503809.0,0.434,503809.0,918.126,-995.6,0.240
503900,2,503900,82,0.28,0.21,0.477,8.944,21.543,45.279,0.21,0.18,0.36,-267.0,17.834,90775.39,918.101,-253509.265,0.3,2.437,503891.0,0.420,503891.0,917.822,-992.552,0.310
503983,2,503983,83,0.43,0.7,0.420,9.587,20.812,44.943,0.27,0.14,0.36,-267.0,17.834,90769.117,918.431,-253542.687,0.9,1.571,503974.0,0.384,503974.0,918.573,-1011.969,0.273
504066,2,504066,83,0.35,0.43,0.341,8.944,20.812,45.454,0.25,0.19,0.38,-267.0,17.839,90775.39,918.431,-253574.312,0.5,2.728,504057.0,0.377,504057.0,918.151,-987.587,0.221
504151,2,504151,85,0.21,0.14,0.449,9.777,20.549,45.410,0.25,0.19,0.35,-267.0,17.839,90771.429,918.617,-253605.421,0.0,2.25,504141.0,0.363,504141.0,918.126,-1000.843,0.291
504264,3,4,113,-3.194,-4.206,98.584,5.992,12.481,42.721,0.64,0.78,-1.561,-267.0,17.820,90768.359,918.828,-248468.140,0.5,3.550,504251.0,93.768,504251.0,917.518,-974.111,64.21
504354,20,94,90,-20.408,0.674,110.472,5.568,11.824,44.943,0.15,0.170,0.518,-267.0,17.829,90744.648,921.502,-239681.734,0.25,1.314,504338.0,108.218,504338.0,919.696,-1016.425,71.740
504444,20,184,90,12.52,3.747,109.524,5.57,12.306,45.45,0.44,0.125,0.239,-267.0,17.834,90652.218,929.945,-229792.187,0.45,1.195,504428.0,111.549,504428.0,923.823,-1011.982,71.125
504533,20,273,89,4.989,-2.297,87.314,6.883,12.452,46.170,0.367,0.6,-2.160,-267.0,17.848,90571.859,937.126,-220826.781,0.99,1.101,504517.0,89.920,504517.0,932.715,-1008.912,56.702
504622,20,362,89,2.390,3.287,73.453,10.684,13.80,47.676,0.513,0.19,-3.222,-267.0,17.848,90503.632,944.9,-213448.46,0.79,1.123,504606.0,75.893,504606.0,939.806,-1001.133,47.700
504710,20,450,88,6.460,3.639,68.485,15.843,13.51,49.619,0.107,0.357,-3.298,-267.0,17.848,90407.320,952.893,-207254.859,0.79,1.125,504694.0,64.860,504694.0,946.783,-991.27,44.474
504810,20,550,100,-3.632,0.940,56.569,21.981,14.235,48.377,0.585,0.198,-3.679,-267.0,17.843,90274.484,963.573,-201338.62,0.100,1.90,504794.0,53.475,504794.0,956.847,-982.502,36.736
504899,20,639,89,21.750,3.653,50.962,30.824,14.864,47.822,0.875,0.178,-7.393,-267.0,17.839,90173.546,973.18,-197084.750,0.125,1.81,504883.0,42.104,504883.0,968.49,-973.224,33.95
504989,20,729,90,0.78,1.428,43.504,39.9,5.86,47.266,0.191,0.252,-9.717,-267.0,17.839,90084.476,982.657,-193415.812,0.94,1.105,504973.0,39.427,504973.0,976.529,-963.924,28.251
505078,20,818,89,3.984,-3.682,20.863,33.31,-13.285,48.538,0.359,0.93,-10.8,-267.0,17.839,90003.85,988.813,-190518.218,0.95,1.105,505062.0,25.687,505062.0,985.18,-956.862,13.548
505168,20,908,90,12.648,-8.176,21.818,16.544,-18.415,48.567,0.277,0.160,-10.8,-267.0,17.839,89806.101,1006.576,-188202.0,0.81,1.121,505151.0,26.362,505151.0,992.238,-940.39,14.168
505388,20,1128,220,5.391,-7.357,-26.744,28.661,15.843,54.413,0.282,0.291,-10.8,-267.0,17.792,89781.62,1008.689,-186365.31,0.69,1.60,505372.0,-9.738,505372.0,1007.692,-939.691,-17.367
505628,20,1368,240,16.331,-3.668,-42.48,-1.900,-9.17,48.436,0.173,0.273,-10.8,-299.0,17.746,89733.554,1013.970,-192658.687,0.10,1.292,505612.0,-42.708,505612.0,1010.112,-926.606,-27.306
505717,20,1457,89,4.106,-3.495,-32.659,6.123,10.494,50.672,0.239,0.192,-10.8,-267.0,17.778,89712.859,1015.326,-196246.78,0.52,1.176,505701.0,-37.906,505701.0,1014.781,-928.794,-21.208
505812,20,1552,95,5.864,0.796,-30.139,25.299,10.201,50.219,0.147,0.275,-10.8,-267.0,17.802,89690.125,1017.509,-199761.953,0.16,1.389,505796.0,-36.111,505796.0,1016.351,-918.591,-19.572
505901,20,1641,89,8.312,-5.154,-28.337,31.584,-6.123,50.613,0.193,0.439,-9.896,-299.0,17.806,89662.328,1020.423,-202520.62,0.23,1.326,505885.0,-25.868,505885.0,1018.413,-919.11,-18.402
506001,20,1741,100,1.213,-5.570,-28.158,22.244,-18.517,50.701,0.482,0.378,-8.746,-267.0,17.802,89622.937,1023.592,-205253.328,0.18,1.354,505985.0,-28.797,505985.0,1020.236,-915.133,-18.285
506095,20,1835,94,0.681,0.825,-24.655,10.932,-19.307,52.46,0.400,0.339,-7.651,-267.0,17.811,89607.734,1024.590,-207878.937,0.35,1.228,506079.0,-27.67,506079.0,1023.618,-918.317,-16.11
506185,20,1925,90,-3.768,0.265,-26.729,3.960,-12.481,52.338,0.337,0.328,-7.283,-267.0,17.820,89585.578,1027.241,-210218.906,0.31,1.263,506168.0,-25.516,506168.0,1026.416,-914.586,-17.358
506274,20,2014,89,5.491,-1.751,-23.772,2.733,-3.873,52.294,0.388,0.265,-5.730,-299.0,17.825,89566.31,1027.694,-212336.750,0.10,1.507,506258.0,-21.546,506258.0,1027.388,-904.248,-15.437
506363,20,2103,89,-1.923,0.366,-25.78,3.712,4.296,52.616,0.633,0.25,-4.352,-267.0,17.829,89549.523,1030.159,-214282.203,0.20,1.354,506347.0,-22.171,506347.0,1029.213,-907.643,-16.286
506452,20,2192,89,-3.854,0.409,-20.369,7.702,11.64,51.710,0.583,0.9,-3.919,-267.0,17.820,89526.351,1032.504,-216215.203,0.23,1.319,506436.0,-21.266,506436.0,1031.345,-906.958,-13.227
506574,20,2314,122,3.883,0.933,-18.215,16.822,15.448,50.803,0.362,0.47,-4.241,-267.0,17.802,89502.757,1033.730,-218729.187,0.13,1.369,506558.0,-19.945,506558.0,1033.51,-903.72,-11.829
506663,20,2403,89,3.409,0.445,-20.118,22.800,14.264,50.175,0.223,0.266,-4.445,-299.0,17.811,89475.671,1035.676,-220492.875,0.16,1.405,506647.0,-19.687,506647.0,1034.517,-901.550,-13.64
506752,20,2492,89,0.401,0.933,-18.998,26.351,10.874,50.803,0.140,0.281,-4.57,-267.0,17.829,89458.148,1037.383,-222218.234,0.21,1.339,506736.0,-19.84,506736.0,1036.464,-900.726,-12.337
506846,20,2586,94,3.897,0.401,-17.505,28.924,6.503,51.417,0.84,0.477,-4.69,-267.0,17.825,89453.226,1039.730,-223899.156,0.20,1.345,506830.0,-16.679,506830.0,1038.357,-899.844,-11.367
506935,20,2675,89,-7.515,-2.612,-17.139,29.304,2.294,52.747,0.195,0.394,-2.749,-299.0,17.820,89429.46,1040.305,-225453.609,0.7,1.600,506919.0,-18.251,506919.0,1039.23,-890.157,-11.130
507024,20,2764,89,3.998,0.143,-15.215,29.172,0.219,53.259,0.163,0.203,-2.151,-267.0,17.829,89416.445,1042.811,-226960.796,0.20,1.353,507008.0,-15.617,507008.0,1040.851,-895.796,-9.880
507130,20,2870,106,0.595,3.467,-14.921,28.675,-2.893,54.180,0.145,0.261,-1.746,-299.0,17.815,89392.265,1043.999,-228670.265,0.16,1.357,507114.0,-16.636,507114.0,1042.652,-893.807,-9.689
507220,20,2960,90,0.308,2.842,-14.569,27.331,-3.800,51.753,0.98,0.193,-2.4,-299.0,17.820,89381.695,1045.493,-230012.296,0.25,1.309,507203.0,-13.521,507203.0,1044.880,-894.655,-9.461
507308,20,3048,88,-2.218,0.739,-14.526,26.571,-5.817,55.203,0.38,0.51,-1.872,-267.0,17.815,89368.804,1046.281,-231216.15,0.15,1.416,507292.0,-13.528,507292.0,1046.281,-889.213,-9.433
507397,20,3137,89,1.170,0.897,-13.514,25.650,-8.623,55.656,0.5,0.48,-1.877,-267.0,17.829,89358.234,1048.204,-232372.765,0.9,1.531,507381.0,-12.466,507381.0,1047.163,-884.275,-8.776
507486,20,3226,89,1.83,1.162,-13.499,24.305,-9.573,54.720,0.17,0.21,-1.788,-299.0,17.825,89336.78,1050.99,-233522.171,0.15,1.426,507470.0,-13.363,507470.0,1048.510,-886.260,-8.766
507576,20,3316,90,0.50,0.344,-11.898,23.618,-11.312,55.276,0.124,0.26,-1.583,-299.0,17.829,89331.734,1050.739,-234685.468,0.17,1.382,507560.0,-12.487,507560.0,1050.126,-886.288,-7.727
507676,20,3416,100,0.373,0.7,-12.42,20.900,-12.379,55.261,0.116,0.51,-1.474,-267.0,17.820,89308.867,1052.449,-235914.484,0.8,1.539,507660.0,-12.92,507660.0,1050.980,-880.697,-7.820
507765,20,3505,89,0.954,0.100,-11.827,20.315,-13.840,55.817,0.109,0.83,-1.397,-299.0,17.834,89296.984,1052.689,-237001.593,0.13,1.456,507749.0,-12.336,507749.0,1052.169,-882.129,-7.680
507853,20,3593,88,0.703,0.43,-11.755,17.480,-14.557,54.808,0.69,0.88,-1.231,-299.0,17.829,89282.70,1053.851,-238045.218,0.15,1.421,507837.0,-11.382,507837.0,1053.544,-882.833,-7.633
507942,20,3682,89,0.35,0.100,-11.360,15.492,-15.273,55.539,0.28,0.91,-1.250,-299.0,17.834,89281.781,1054.585,-239064.296,0.2,2.228,507926.0,-11.518,507926.0,1053.358,-860.628,-7.377
508031,20,3771,89,0.567,0.35,-11.389,14.89,-14.367,53.756,0.13,0.60,-1.80,-299.0,17.825,89268.171,1055.653,-240096.156,0.20,1.356,508015.0,-11.669,508015.0,1055.161,-882.336,-7.396
508126,20,3866,95,0.969,0.122,-11.44,12.510,-14.732,52.484,0.48,0.39,0.970,-299.0,17.829,89264.546,1056.81,-241178.484,0.7,1.576,508110.0,-11.116,508110.0,1055.895,-875.248,-7.172
508227,20,3967,101,0.78,0.78,-11.30,11.707,-13.826,55.992,0.98,0.18,0.757,-299.0,17.820,89247.320,1057.363,-242286.546,0.11,1.456,508210.0,-11.44,508210.0,1057.84,-878.41,-7.163
508316,20,4056,89,0.179,0.35,-10.685,10.640,-12.613,55.553,0.124,0.54,0.785,-267.0,17.820,89251.953,1058.191,-243268.296,0.2,2.318,508300.0,-10.771,508300.0,1056.842,-856.185,-6.939
508413,20,4153,97,0.631,0.150,-10.664,10.245,-11.78,54.618,0.132,0.66,0.764,-299.0,17.820,89249.343,1058.646,-244307.953,0.17,1.368,508397.0,-10.664,508397.0,1058.553,-880.142,-6.925
508502,20,4242,89,0.172,0.100,-10.585,10.70,-9.631,55.612,0.135,0.100,0.773,-299.0,17.829,89240.78,1059.409,-245244.937,0.1,1.892,508486.0,-10.391,508486.0,1058.674,-864.728,-6.874
508602,20,4342,100,0.308,0.35,-10.204,10.435,-8.783,55.495,0.130,0.145,0.694,-299.0,17.820,89231.109,1059.715,-246278.703,0.2,1.824,508586.0,-10.283,508586.0,1058.887,-865.760,-6.627
508688,21,4428,86,0.552,0.100,-10.592,10.976,-7.307,54.676,0.128,0.99,0.697,-299.0,17.825,89230.804,1060.236,-247182.453,0.4,1.700,508675.0,-10.25,508675.0,1059.315,-869.389,-6.878
508804,21,4544,116,0.43,-7.70,-11.819,11.254,-5.422,54.399,0.109,0.277,0.571,-299.0,17.806,89221.125,1059.995,-246473.562,0.2,1.805,508788.0,22.572,508788.0,1059.556,-865.505,-7.675
508894,21,4634,90,3.797,0.251,-9.56,11.984,-5.407,55.71,0.57,0.231,0.567,-267.0,17.815,89224.453,1060.22,-245854.46,0.1,1.862,508878.0,-8.805,508878.0,1059.715,-864.496,-5.881
508983,21,4723,89,0.193,0.50,-10.54,12.394,-4.516,55.451,0.72,0.343,0.767,-267.0,17.815,89227.781,1060.663,-246791.671,0.10,1.505,508967.0,-12.265,508967.0,1060.691,-872.629,-6.529
509072,21,4812,89,0.696,0.57,-10.219,14.542,-4.63,53.390,0.46,0.313,0.741,-299.0,17.825,89212.570,1060.143,-247777.531,0.5,3.86,509056.0,-9.888,509056.0,1060.170,-840.686,-6.636
509160,21,4900,88,-18.900,45.784,223.870,29.391,2.396,55.276,0.960,3.568,0.787,-299.0,17.829,89205.625,1060.384,-248596.593,0.0,2.0,509144.0,-8.726,509144.0,1060.170,-860.590,145.381
509250,21,4990,90,0.559,0.265,-9.759,13.460,-8.126,53.814,0.327,0.173,0.87,-299.0,17.829,89221.539,1060.357,-249447.0,0.5,1.687,509233.0,-10.384,509233.0,1060.626,-868.269,-6.337
509350,21,5090,100,0.437,0.35,-10.68,18.415,-4.223,55.743,0.229,0.158,0.145,-299.0,17.815,89225.164,1060.22,-250504.875,0.1,2.138,509334.0,-10.563,509334.0,1060.504,-857.137,-6.538
509440,21,5180,90,0.875,0.122,-10.369,18.737,-5.817,56.460,0.285,0.243,0.167,-299.0,17.820,89227.781,1059.687,-251443.15,0.0,2.0,509424.0,-10.283,509424.0,1060.504,-860.609,-6.734
509529,21,5269,89,0.323,0.35,-10.133,20.710,-6.606,54.618,0.314,0.568,0.189,-299.0,17.820,89225.164,1059.501,-252353.156,0.8,5.201,509513.0,-10.168,509513.0,1059.742,-817.185,-6.580
509618,21,5358,89,0.466,0.21,-9.982,23.764,-7.512,55.700,0.244,-1.70,0.274,-299.0,17.820,89227.781,1059.287,-253260.109,0.10,20.458,509602.0,-10.211,509602.0,1058.794,-754.974,-6.482
509712,21,5452,94,0.445,0.78,-9.924,30.692,-7.921,53.960,0.75,-1.678,0.537,-299.0,17.811,89229.796,1059.594,-254251.750,0.7,1.576,509696.0,-10.886,509696.0,1059.529,-872.748,-6.445
509801,21,5541,89,0.839,0.222,-10.951,38.716,-4.603,50.950,0.661,-2.295,0.954,-299.0,17.825,89239.62,1058.739,-255217.156,0.7,3.789,509785.0,-10.807,509785.0,1058.887,-832.701,-7.111
509901,21,5641,100,0.926,0.78,-11.482,50.175,3.40,43.919,1.604,-3.139,1.516,-299.0,17.815,89237.46,1058.805,-256327.734,0.0,2.0,509885.0,-11.403,509885.0,1058.887,-862.329,-7.456
509996,21,5736,95,-1.399,0.179,-12.710,59.163,17.947,27.828,2.682,-3.989,2.106,-299.0,17.811,89232.414,1058.191,-257459.156,0.0,2.58,509980.0,-12.415,509980.0,1058.832,-861.112,-8.253
510085,21,5825,89,-1.220,0.588,-15.93,59.733,31.394,5.188,4.272,-4.471,2.873,-299.0,17.815,89242.687,1057.577,-258651.375,0.11,-23.94,510069.0,-14.375,510069.0,1057.791,-751.886,-9.801
510179,21,5919,94,0.57,0.638,-19.493,42.604,32.914,-28.208,6.655,-4.338,4.41,-299.0,17.825,89267.164,1055.961,-260181.484,0.15,-1.135,510163.0,-18.180,510163.0,1056.322,-891.336,-12.659
510269,21,6009,90,-1.751,0.875,-27.713,21.543,11.517,-49.298,5.198,-1.694,1.978,-267.0,17.825,89271.796,1055.12,-262124.62,0.19,0.407,510252.0,-25.473,510252.0,1054.612,-936.744,-17.996
510358,21,6098,89,9.174,-1.406,-41.380,19.131,18.985,-49.327,-10.6,1.430,10.6,-267.0,17.825,89285.398,1054.679,-264762.625,0.1,2.136,510342.0,-33.161,510342.0,1054.492,-864.211,-26.872
510464,21,6204,106,0.516,-20.114,-37.131,-7.775,41.654,10.128,-10.6,-1.817,-7.684,-299.0,17.811,89273.101,1054.864,-268378.187,0.0,1.972,510448.0,-35.56,510448.0,1054.520,-866.835,-24.113
510553,21,6293,89,19.338,13.194,-42.328,-25.533,2.864,31.204,-4.348,9.987,-10.8,-267.0,17.825,89295.976,1052.783,-272610.843,0.16,-1.322,510537.0,-60.59,510537.0,1053.89,-886.330,-27.488
510642,21,6382,89,21.901,6.668,-7.706,-27.667,-3.770,-10.99,6.499,0.408,10.6,-267.0,17.825,89306.546,1052.87,-275655.187,0.7,4.416,510626.0,-8.352,510626.0,1052.382,-831.785,-5.4
510743,21,6483,101,20.164,-4.414,-3.299,27.9,-38.365,31.818,8.553,7.865,10.6,-299.0,17.820,89311.179,1051.780,-276334.250,0.0,2.27,510727.0,-5.93,510727.0,1052.355,-868.448,-2.142
510832,21,6572,89,8.90,4.845,-4.634,24.627,7.337,49.707,0.232,4.875,10.6,-299.0,17.825,89320.445,1050.739,-276701.343,0.15,-1.485,510816.0,-3.155,510816.0,1050.953,-883.560,-3.9
510921,21,6661,89,-5.850,0.423,-3.198,-1.563,-15.112,45.45,-4.502,6.548,10.6,-299.0,17.815,89320.445,1050.619,-277032.31,0.8,4.757,510905.0,-4.275,510905.0,1050.219,-830.271,-2.77
511042,21,6782,121,-12.870,4.220,-1.368,63.563,-15.901,17.787,-5.90,2.584,10.6,-299.0,17.797,89323.359,1050.564,-277316.125,0.0,2.136,511026.0,0.420,511026.0,1050.99,-867.443,0.888
511131,21,6871,89,-7.853,-4.443,-2.997,37.562,40.441,37.79,-7.544,2.509,10.6,-299.0,17.811,89334.351,1049.737,-277463.750,0.0,2.28,511115.0,-2.897,511115.0,1050.71,-871.187,-1.946
511220,21,6960,89,-8.693,-2.914,-3.780,10.289,4.823,48.684,-6.157,-1.551,10.6,-299.0,17.815,89355.203,1048.149,-277743.312,0.21,0.116,511204.0,-3.385,511204.0,1048.176,-1001.910,-2.454
511316,21,7056,96,-10.918,-7.422,-1.971,52.163,-9.207,38.278,-5.378,0.830,10.6,-299.0,17.820,89349.257,1049.4,-278016.156,0.0,2.103,511299.0,-2.358,511299.0,1048.83,-869.702,-1.280
511405,21,7145,89,-11.643,-5.520,-1.439,66.413,21.587,31.730,-7.187,-1.228,10.6,-299.0,17.820,89351.578,1048.296,-278181.281,0.2,1.842,511389.0,-1.310,511389.0,1048.269,-875.620,0.935
511499,21,7239,94,-10.459,-4.34,-3.191,41.157,40.572,40.426,-5.678,0.257,10.6,-299.0,17.820,89357.515,1047.628,-278395.250,0.1,2.229,511483.0,-3.241,511483.0,1048.83,-868.323,-2.72
511599,21,7339,100,-8.54,-3.244,-2.681,16.837,8.243,50.453,-6.771,0.249,10.6,-299.0,17.820,89370.406,1046.747,-278704.0,0.14,-1.21,511583.0,-2.933,511583.0,1046.588,-904.663,-1.741
511688,21,7428,89,-11.306,1.507,-1.849,37.912,-18.269,40.2,-4.773,0.159,10.6,-267.0,17.815,89369.101,1046.868,-278971.93,0.0,2.27,511672.0,-3.69,511672.0,1046.561,-874.365,-1.200
511778,21,7518,90,-9.683,-2.641,0.815,57.936,4.472,34.668,-6.790,3.85,10.6,-299.0,17.820,89374.742,1046.227,-279151.406,0.2,2.229,511762.0,0.937,511762.0,1046.375,-869.826,0.529
511867,21,7607,89,-7.92,2.878,-1.597,45.235,20.242,41.362,-5.545,0.581,10.6,-299.0,17.815,89373.734,1045.66,-279212.781,0.8,4.761,511851.0,0.442,511851.0,1045.641,-836.261,-1.37
511956,21,7696,89,-3.747,-3.646,-3.780,24.203,22.639,46.243,-3.876,0.927,10.6,-299.0,17.815,89394.585,1044.732,-279408.968,0.8,5.179,511940.0,-3.966,511940.0,1044.880,-832.752,-2.454
512044,21,7784,88,-4.666,-2.677,0.255,20.681,-4.19,48.202,-4.866,0.649,10.6,-299.0,17.820,89400.226,1044.213,-279642.125,0.2,1.842,512028.0,-1.332,512028.0,1045.66,-880.184,0.165
512144,21,7884,100,-11.370,-2.957,0.275,46.843,-1.973,40.938,-4.192,1.973,10.6,-267.0,17.806,89394.882,1044.185,-279695.656,0.11,-6.481,512128.0,0.261,512128.0,1043.933,-822.863,0.179
512233,21,7973,89,-6.683,-2.210,0.756,45.279,7.0,43.159,-7.834,0.403,10.6,-267.0,17.811,89400.523,1043.759,-279654.812,0.0,1.937,512217.0,0.656,512217.0,1043.999,-878.434,0.491
512329,21,8069,96,-8.154,0.717,-3.256,45.527,19.102,40.762,-2.674,0.382,10.6,-299.0,17.820,89412.109,1043.572,-279755.812,0.4,2.744,512312.0,-2.782,512312.0,1043.572,-862.868,-2.114
512418,21,8158,89,-3.223,-5.469,-3.679,21.265,25.416,44.636,-4.336,1.134,10.6,-299.0,17.811,89417.750,1042.838,-280019.125,0.15,-1.671,512402.0,-3.69,512402.0,1042.198,-886.608,-2.389
512507,21,8247,89,-3.467,0.21,-2.35,21.499,-5.977,49.20,-3.812,-1.641,10.6,-267.0,17.815,89413.117,1042.50,-280279.218,0.3,1.765,512491.0,-2.775,512491.0,1042.504,-884.342,-1.321
512601,21,8341,94,-7.207,-2.756,-1.554,41.815,-2.601,43.846,-2.762,1.613,10.6,-299.0,17.820,89421.78,1041.197,-280485.406,0.15,-1.143,512585.0,-1.612,512585.0,1041.38,-904.890,-1.9
512700,21,8440,99,-4.766,0.186,0.32,42.721,5.422,44.212,-5.269,0.606,10.6,-299.0,17.806,89425.0,1041.717,-280583.906,0.4,1.714,512684.0,0.377,512684.0,1041.437,-885.382,0.21
512789,21,8529,89,-6.331,0.107,-1.928,42.472,13.577,43.832,-2.565,0.871,10.6,-299.0,17.802,89431.945,1041.77,-280678.187,0.0,2.27,512773.0,-1.741,512773.0,1041.410,-878.501,-1.252
512885,21,8625,96,-1.356,-2.828,-1.181,23.896,14.586,48.538,-3.847,1.511,10.6,-267.0,17.797,89438.898,1039.797,-280832.625,0.7,4.740,512869.0,-1.475,512869.0,1040.678,-841.687,0.767
512974,21,8714,89,-2.311,3.531,0.528,24.408,-2.411,49.298,-1.751,0.63,10.6,-299.0,17.806,89436.578,1040.103,-280928.500,0.8,4.756,512958.0,0.678,512958.0,1039.944,-842.81,0.343
513063,21,8803,89,-5.67,0.366,0.742,27.258,2.630,48.275,-1.34,3.778,10.6,-299.0,17.802,89444.835,1040.10,-280961.781,0.2,2.318,513047.0,0.68,513047.0,1039.703,-874.512,0.482
513157,21,8897,94,-1.636,3.818,1.546,20.520,-8.301,47.880,-3.507,2.854,10.6,-267.0,17.802,89451.789,1039.370,-280859.281,0.0,2.102,513141.0,2.249,513141.0,1039.610,-879.363,1.4
513274,21,9014,117,-2.476,0.545,1.29,39.915,-5.57,44.665,-2.55,2.842,10.6,-299.0,17.783,89453.679,1038.249,-280663.656,0.0,1.915,513258.0,1.94,513258.0,1039.703,-884.165,0.668
513369,21,9109,95,1.457,1.335,0.132,37.722,9.441,47.588,-1.643,0.545,10.6,-299.0,17.792,89468.7,1037.302,-280598.250,0.22,0.138,513352.0,0.297,513352.0,1037.542,-1004.930,0.85
513458,21,9198,89,0.409,0.789,0.894,20.140,21.61,47.632,0.553,1.985,10.6,-299.0,17.802,89464.671,1037.877,-280625.125,0.1,2.102,513442.0,0.894,513442.0,1037.449,-880.524,0.580
513547,21,9287,89,0.50,1.715,0.699,0.116,-2.75,44.577,-1.326,3.168,10.6,-299.0,17.806,89470.320,1037.116,-280623.906,0.2,1.806,513531.0,0.921,513531.0,1037.690,-888.39,0.454
513637,21,9377,90,-3.495,0.725,1.445,23.297,-26.892,37.6,-2.184,2.795,10.6,-299.0,17.806,89473.648,1036.809,-280542.562,0.15,-1.502,513621.0,0.885,513621.0,1036.290,-897.85,0.938
513723,30,9463,86,0.531,-1.902,0.132,56.635,-8.623,33.265,-3.503,0.959,10.6,-267.0,17.806,89485.234,1036.290,-280459.250,0.1,2.103,513710.0,0.986,513710.0,1036.197,-882.292,0.85
513825,4,9565,102,-7.573,4.55,0.836,45.89,39.257,31.160,0.293,0.308,10.6,-299.0,17.802,89493.492,1035.290,-280518.843,0.8,7.798,513807.0,-2.215,513807.0,1035.344,-824.344,0.543
513904,4,9644,79,-2.900,3.696,0.255,6.21,42.940,29.391,0.102,1.211,10.6,-267.0,17.797,89487.843,1034.983,-280621.468,0.5,3.85,513898.0,0.40,513898.0,1034.823,-865.685,0.165
513984,4,9724,80,1.335,2.935,1.819,-17.275,4.165,28.178,0.400,1.653,10.6,-267.0,17.797,89494.500,1035.103,-280519.0,0.3,1.765,513978.0,2.601,513978.0,1035.130,-892.60,1.181
514064,4,9804,80,-2.45,0.272,1.208,6.679,-33.411,23.779,-1.81,3.908,10.6,-299.0,17.806,89505.70,1034.343,-280338.156,0.13,-14.340,514058.0,1.919,514058.0,1034.64,-796.913,0.785
514144,4,9884,80,0.86,0.330,-1.174,53.171,-27.915,16.354,-3.457,1.557,10.6,-299.0,17.802,89515.351,1033.490,-280283.937,0.1,1.915,514138.0,0.564,514138.0,1034.157,-888.142,0.762
514224,4,9964,80,-3.675,-2.124,0.635,68.35,23.180,12.57,-1.834,0.474,10.6,-299.0,17.797,89512.23,1033.796,-280343.125,0.3,2.441,514218.0,0.915,514218.0,1033.850,-878.468,0.412
514314,4,10054,90,1.471,-3.302,1.424,23.209,53.624,18.897,-2.717,0.109,10.6,-267.0,17.788,89517.960,1032.731,-280306.687,0.10,37.735,514308.0,1.725,514308.0,1032.877,-753.758,0.924
514394,4,10134,80,0.459,1.909,0.750,-13.66,24.788,26.775,0.730,-1.10,10.6,-299.0,17.797,89528.531,1032.544,-280261.656,0.3,2.441,514387.0,0.585,514387.0,1032.571,-879.615,0.487
514473,4,10213,79,0.710,-1.895,1.280,-10.859,-15.916,26.658,0.747,3.481,10.6,-299.0,17.802,89529.250,1031.264,-280255.93,0.8,4.270,514467.0,0.749,514467.0,1031.877,-854.595,0.831
514553,4,10293,80,1.284,2.950,1.567,24.598,-38.424,20.608,-2.86,2.523,10.6,-299.0,17.797,89539.820,1030.904,-280177.343,0.6,2.970,514547.0,1.194,514547.0,1031.384,-871.129,1.18
514639,4,10379,86,-4.429,0.940,0.641,64.893,-5.875,18.240,-1.6,2.689,10.6,-299.0,17.797,89544.460,1030.904,-280094.62,0.3,2.500,514633.0,0.742,514633.0,1031.51,-879.398,0.416
514719,4,10459,80,0.323,-2.541,0.354,53.507,33.908,28.997,-3.484,1.955,10.6,-299.0,17.792,89555.31,1030.265,-280044.718,0.14,-4.393,514713.0,0.491,514713.0,1029.866,-854.907,0.230
514799,4,10539,80,0.631,0.918,0.535,21.163,39.593,37.328,-1.196,-1.523,10.6,-299.0,17.792,89549.382,1029.199,-280051.93,0.8,4.399,514793.0,0.650,514793.0,1029.160,-854.858,0.347
514918,4,10658,119,3.438,-1.794,2.458,-9.997,6.533,36.875,0.372,1.7,10.6,-299.0,17.769,89558.218,1028.719,-279949.93,0.4,3.347,514912.0,2.364,514912.0,1028.586,-867.976,1.596
514998,4,10738,80,2.153,3.251,1.876,5.510,-22.274,37.810,1.761,0.744,10.6,-299.0,17.774,89566.179,1028.80,-279793.500,0.2,1.861,514992.0,1.524,514992.0,1028.746,-895.486,1.218
515078,4,10818,80,0.129,0.638,0.792,30.970,-19.248,41.113,0.503,3.771,10.6,-299.0,17.783,89575.156,1027.68,-279706.250,0.9,4.752,515072.0,0.656,515072.0,1028.13,-854.11,0.514
515162,4,10902,84,1.162,2.45,2.63,40.909,-6.197,44.840,-1.996,1.704,10.6,-299.0,17.792,89578.484,1027.467,-279599.562,0.7,3.578,515156.0,1.883,515156.0,1027.401,-866.269,1.339
515242,4,10982,80,-2.31,-2.232,3.929,40.777,12.584,44.226,-1.219,1.63,10.6,-299.0,17.783,89580.804,1026.828,-279384.250,0.7,3.582,515236.0,3.498,515236.0,1026.788,-868.131,2.551
515322,4,11062,80,3.22,-2.376,0.713,27.930,19.672,47.296,-1.760,0.911,10.6,-299.0,17.783,89591.375,1026.308,-279198.531,0.4,2.498,515316.0,1.144,515316.0,1026.455,-884.410,0.463
515420,4,11160,98,0.610,-2.404,-1.195,20.958,20.593,47.237,1.598,-1.224,10.6,-299.0,17.778,89596.296,1025.336,-279213.562,0.5,3.203,515413.0,-1.454,515413.0,1025.909,-873.107,0.776
515499,4,11239,79,3.488,-3.373,2.321,7.877,16.895,46.755,0.785,0.81,10.6,-267.0,17.778,89594.992,1024.817,-279122.312,0.13,-14.312,515493.0,3.735,515493.0,1024.844,-805.659,1.507
515584,4,11324,85,1.148,0.538,1.94,5.714,0.175,46.638,0.899,0.245,10.6,-299.0,17.783,89608.601,1025.216,-278923.750,0.6,1.658,515578.0,0.936,515578.0,1025.363,-904.320,0.710
515664,4,11404,80,-1.464,0.890,0.38,14.279,-11.429,46.83,0.430,1.902,10.6,-267.0,17.783,89607.304,1024.297,-278877.281,0.6,3.78,515658.0,0.225,515658.0,1024.844,-876.710,0.25
515744,4,11484,80,-2.9,0.143,0.160,27.228,-17.874,44.7,-2.82,1.301,10.6,-299.0,17.774,89614.539,1023.539,-278883.656,0.13,-14.312,515738.0,0.384,515738.0,1023.778,-807.693,0.104
515824,4,11564,80,-3.158,-1.4,2.149,42.429,-12.613,39.929,-2.462,1.662,10.5,-299.0,17.783,89631.773,1023.539,-278809.62,0.9,5.153,515818.0,2.249,515818.0,1023.19,-854.30,1.395
516037,4,11777,213,0.287,0.933,0.212,42.838,35.589,35.4,1.450,0.100,10.5,-299.0,17.709,89646.679,1021.529,-278591.312,0.0,2.270,516031.0,0.205,516031.0,1022.807,-893.569,0.137
516117,4,11857,80,5.326,-1.830,2.867,14.89,42.999,32.563,0.877,0.121,10.6,-299.0,17.741,89644.796,1021.515,-278501.187,0.16,-2.142,516111.0,2.458,516111.0,1021.488,-895.738,1.861
516323,4,12063,206,1.277,-1.586,0.333,-9.675,-19.146,27.141,0.397,1.723,10.0,-299.0,17.713,89655.945,1019.825,-278176.718,0.9,0.32,516317.0,0.692,516317.0,1019.520,-1087.931,0.216
516403,4,12143,80,0.868,2.282,0.268,19.541,-37.766,23.180,0.714,0.418,9.998,-299.0,17.737,89663.335,1019.172,-278131.968,0.8,1.582,516397.0,0.426,516397.0,1020.237,-911.439,0.174
516525,4,12265,122,-2.548,-3.876,3.82,59.134,-13.650,21.616,-2.756,2.680,8.468,-299.0,17.741,89671.585,1018.813,-277896.656,0.14,0.344,516518.0,3.462,516518.0,1018.494,-981.880,2.1
516604,4,12344,79,1.701,0.602,1.625,66.18,5.553,22.84,-3.654,0.884,8.489,-299.0,17.751,89677.960,1018.840,-277664.125,0.2,2.315,516598.0,2.350,516598.0,1018.254,-895.827,1.55
516684,4,12424,80,-4.228,0.595,0.526,62.57,33.352,15.741,0.102,-1.196,8.563,-299.0,17.769,89678.687,1018.161,-277545.0,0.2,2.269,516678.0,0.627,516678.0,1018.41,-896.589,0.342
516764,4,12504,80,0.122,-5.764,4.654,40.967,51.870,16.223,-1.618,0.734,7.129,-299.0,17.788,89686.648,1017.336,-277332.562,0.9,5.967,516758.0,4.683,516758.0,1017.243,-853.280,3.22
516843,4,12583,79,6.137,0.890,1.589,17.246,47.690,26.556,-1.889,-3.214,7.664,-267.0,17.788,89692.296,1016.697,-277076.562,0.9,4.732,516837.0,1.797,516837.0,1016.510,-864.574,1.32
516923,4,12663,80,-1.249,0.760,-1.605,3.741,39.520,30.93,2.868,-3.247,7.999,-299.0,17.778,89696.929,1015.726,-277072.31,0.3,1.765,516917.0,-1.683,516917.0,1016.817,-909.964,-1.42
517013,4,12753,90,0.990,-7.20,1.689,-11.867,28.18,26.702,1.139,0.150,6.206,-299.0,17.769,89706.773,1015.367,-277123.125,0.16,-1.155,517007.0,0.548,517007.0,1015.353,-929.900,1.97
517100,4,12840,87,3.711,0.868,0.505,-15.244,5.261,29.391,0.612,-2.355,6.2,-299.0,17.764,89708.804,1014.967,-277053.218,0.0,1.937,517094.0,1.58,517094.0,1015.419,-905.777,0.328
517180,4,12920,80,-2.598,2.311,-1.640,-5.130,-8.82,36.802,2.615,-1.165,6.32,-299.0,17.769,89715.750,1014.448,-277085.437,0.10,7.720,517174.0,-1.863,517174.0,1014.568,-844.696,-1.65
517260,4,13000,80,-1.313,-1.40,-1.482,1.271,-10.581,40.894,2.399,2.353,5.156,-267.0,17.774,89722.703,1014.848,-277231.937,0.4,2.663,517254.0,-1.798,517254.0,1014.169,-893.401,0.963
517345,4,13085,85,5.714,0.466,1.632,1.315,-16.720,40.572,0.186,1.591,5.78,-267.0,17.760,89727.335,1013.385,-277247.250,0.5,2.825,517339.0,1.438,517339.0,1013.717,-890.331,1.60
517425,4,13165,80,2.354,4.321,0.815,11.20,-22.303,41.537,1.898,0.104,6.178,-267.0,17.764,89731.968,1013.52,-277205.375,0.3,1.765,517419.0,0.391,517419.0,1014.23,-913.429,0.529
517533,4,13273,108,0.50,0.394,0.729,23.78,-11.64,47.413,2.192,2.290,5.680,-299.0,17.755,89737.171,1012.667,-277283.781,0.14,0.717,517526.0,-1.73,517526.0,1012.440,-954.282,0.473
517617,4,13357,84,1.981,0.818,1.668,20.798,-8.23,48.479,0.451,1.875,5.356,-299.0,17.755,89748.468,1011.656,-277263.93,0.4,2.559,517611.0,1.560,517611.0,1012.82,-896.730,1.83
517697,4,13437,80,-1.399,2.325,2.163,22.581,-10.435,47.135,0.659,0.851,5.380,-299.0,17.769,89759.484,1011.562,-277138.812,0.10,6.708,517691.0,1.546,517691.0,1011.257,-854.433,1.405
517783,4,13523,86,-2.907,0.552,1.517,24.524,-10.581,44.314,0.762,2.455,4.446,-299.0,17.769,89754.117,1010.924,-277033.593,0.2,2.229,517777.0,0.900,517777.0,1011.70,-904.983,0.985
517863,4,13603,80,0.961,1.205,0.176,21.221,-14.279,43.788,-1.592,2.871,3.843,-299.0,17.769,89772.78,1009.767,-277008.656,0.14,-4.444,517857.0,0.276,517857.0,1009.887,-874.471,0.114
517943,4,13683,80,0.725,3.359,2.472,20.213,-20.81,41.873,0.990,1.768,4.80,-267.0,17.764,89778.304,1009.129,-276941.812,0.3,2.440,517937.0,1.948,517937.0,1009.581,-902.449,1.605
518033,4,13773,90,0.775,0.574,1.948,26.775,-21.733,41.11,0.342,1.16,4.180,-267.0,17.769,89777.0,1008.916,-276756.781,0.8,4.732,518027.0,2.163,518027.0,1008.849,-872.382,1.265
518113,4,13853,80,-1.586,-1.550,0.25,34.200,-21.353,39.579,-1.644,0.783,3.586,-299.0,17.774,89787.570,1008.797,-276650.875,0.0,2.27,518107.0,0.483,518107.0,1008.822,-910.966,0.16
518193,4,13933,80,-3.108,0.358,0.2,39.315,-23.107,35.618,-2.494,0.573,3.14,-267.0,17.778,89789.601,1007.546,-276616.187,0.7,3.760,518187.0,0.383,518187.0,1008.185,-883.870,0.1
518273,4,14013,80,-2.490,1.62,1.244,42.779,-24.247,30.897,-1.941,1.427,2.484,-299.0,17.774,89787.281,1007.334,-276539.0,0.10,6.700,518267.0,1.546,518267.0,1007.360,-857.229,0.808
518353,4,14093,80,-1.177,0.961,0.512,46.97,-24.408,29.406,-1.421,1.738,2.239,-299.0,17.774,89804.804,1006.976,-276465.531,0.4,2.497,518347.0,0.290,518347.0,1007.28,-903.158,0.332
518433,4,14173,80,0.244,0.93,0.239,49.503,-23.48,28.895,-1.395,0.873,2.315,-267.0,17.774,89802.484,1006.482,-276450.656,0.12,-25.771,518427.0,0.81,518427.0,1005.991,-797.911,0.155
518512,4,14252,79,-1.873,0.976,3.412,53.215,-19.161,26.541,-1.662,0.478,2.95,-299.0,17.783,89812.765,1005.871,-276323.406,0.3,2.313,518506.0,3.139,518506.0,1005.752,-907.448,2.216
518603,4,14343,91,-2.756,-1.191,3.218,55.100,-19.526,23.545,-2.831,1.94,1.168,-267.0,17.764,89822.609,1005.486,-276011.406,0.4,2.739,518596.0,3.793,518596.0,1005.326,-901.87,2.90
518682,4,14422,79,-1.507,1.744,0.692,54.662,-22.332,19.511,-2.668,1.389,0.796,-299.0,17.764,89834.187,1004.423,-275817.343,0.2,2.270,518676.0,1.58,518676.0,1005.114,-909.717,0.449
518768,4,14508,86,-2.81,3.524,1.43,54.282,-23.370,18.284,0.802,1.720,0.789,-299.0,17.774,89837.234,1004.25,-275734.687,0.7,3.972,518762.0,0.864,518762.0,1004.450,-885.835,0.677
518848,4,14588,80,-1.148,0.574,3.348,52.280,-21.558,21.806,0.63,2.310,0.456,-299.0,17.774,89845.203,1003.81,-275542.937,0.10,7.679,518842.0,3.929,518842.0,1003.600,-855.698,2.174
518928,4,14668,80,0.122,-1.342,0.620,48.421,-23.604,26.980,-1.749,1.949,0.223,-267.0,17.774,89849.101,1002.416,-275364.375,0.7,3.576,518922.0,0.534,518922.0,1002.988,-891.115,0.402
519013,4,14753,85,0.387,2.957,0.198,43.28,-29.450,24.846,-1.998,1.316,0.353,-299.0,17.769,89851.421,1001.924,-275364.437,0.10,9.151,519007.0,0.535,519007.0,1002.110,-848.922,0.128
519121,4,14861,108,0.990,5.376,3.427,39.9,-31.482,25.21,1.754,1.264,0.112,-299.0,17.746,89863.578,1001.182,-275201.312,0.7,6.684,519115.0,3.556,519115.0,1001.286,-864.508,2.225
519201,4,14941,80,-1.241,0.674,1.740,33.805,-27.243,32.987,1.558,2.339,0.981,-299.0,17.755,89866.625,1000.690,-274961.875,0.8,4.218,519195.0,2.429,519195.0,1000.597,-885.866,1.130
519285,4,15025,84,1.543,0.638,0.442,23.209,-26.541,38.439,0.158,2.106,-1.754,-299.0,17.760,89878.203,999.508,-274883.843,0.1,1.893,519279.0,0.571,519279.0,1000.716,-922.221,0.287
519365,4,15105,80,3.962,4.809,4.245,13.884,-27.638,37.839,0.437,0.274,-1.96,-299.0,17.764,89873.570,999.627,-274743.468,0.10,7.665,519359.0,4.80,519359.0,999.866,-860.36,2.756
519445,4,15185,80,0.516,5.599,2.687,12.394,-21.704,40.821,3.296,0.426,0.559,-299.0,17.751,89885.437,998.657,-274469.0,0.14,-5.420,519439.0,2.781,519439.0,998.710,-876.280,1.745
519531,4,15271,86,-1.313,0.445,0.584,10.888,-5.831,46.492,4.32,1.218,-1.354,-267.0,17.760,89889.789,998.232,-274299.593,0.7,3.764,519525.0,1.158,519525.0,998.72,-892.921,0.379
519623,4,15363,92,3.409,-4.299,2.874,6.693,10.26,46.199,1.182,0.616,-2.334,-299.0,17.751,89902.960,997.807,-274116.406,0.3,1.781,519616.0,2.867,519616.0,998.352,-927.164,1.866
519707,4,15447,84,4.357,0.35,2.501,9.880,13.241,47.91,0.763,-1.632,-1.972,-299.0,17.746,89903.976,996.839,-273892.843,0.7,3.968,519701.0,2.393,519701.0,997.689,-891.609,1.624
519787,4,15527,80,1.148,3.424,-1.16,18.313,13.738,48.976,0.716,-2.661,-1.175,-299.0,17.746,89914.257,996.533,-273826.843,0.14,-6.656,519781.0,0.743,519781.0,996.558,-869.202,0.660
519867,4,15607,80,0.976,0.50,-1.368,28.807,20.666,47.33,2.147,-2.239,-1.161,-299.0,17.755,89922.226,996.15,-273915.625,0.13,-15.189,519861.0,-1.475,519861.0,995.497,-832.36,0.888
519947,4,15687,80,-1.866,-4.910,3.764,40.850,25.343,43.42,0.201,0.729,-2.433,-299.0,17.755,89922.507,995.683,-273853.93,0.2,1.807,519941.0,3.39,519941.0,995.735,-928.345,2.444
520027,4,15767,80,1.471,-3.36,4.137,42.136,16.661,43.510,-2.482,0.32,-3.642,-267.0,17.751,89925.843,995.351,-273581.812,0.8,3.971,520021.0,3.742,520021.0,995.71,-893.768,2.687
520107,4,15847,80,2.943,1.177,0.183,43.992,0.979,44.66,-2.69,-1.290,-2.870,-267.0,17.760,89932.789,994.740,-273443.187,0.1,2.103,520101.0,0.276,520101.0,994.978,-923.405,0.119
520196,4,15936,89,-1.464,1.435,0.542,48.289,-8.564,39.666,0.662,-1.958,-2.158,-299.0,17.746,89938.726,993.984,-273471.31,0.3,2.439,520190.0,0.348,520190.0,994.672,-916.352,0.352
520276,4,16016,80,-4.522,0.258,0.232,47.369,-14.133,35.749,0.122,0.40,-2.752,-267.0,17.746,89943.359,994.77,-273450.687,0.12,33.379,520270.0,0.857,520270.0,993.703,-799.226,0.151
520356,4,16096,80,-2.189,-1.887,1.790,35.384,-21.31,37.357,0.356,2.490,-3.913,-299.0,17.755,89949.7,993.372,-273370.62,0.6,3.189,520350.0,1.158,520350.0,993.160,-906.117,1.162
520436,4,16176,80,2.282,-1.658,1.79,18.298,-25.840,37.401,-1.291,1.719,-4.375,-299.0,17.755,89954.945,992.921,-273278.812,0.9,5.113,520430.0,1.122,520430.0,992.403,-884.845,0.701
520516,4,16256,80,2.885,1.371,0.75,4.413,-27.228,33.221,-1.741,0.284,-3.776,-267.0,17.755,89961.609,992.165,-273236.937,0.5,1.701,520510.0,0.75,520510.0,992.828,-934.966,0.49
520596,4,16336,80,1.363,5.103,0.140,-3.463,-23.750,31.218,0.306,-1.328,-3.104,-299.0,17.755,89965.226,991.553,-273246.750,0.11,18.522,520590.0,0.169,520590.0,991.885,-827.411,0.91
520676,4,16416,80,0.997,4.687,0.930,-5.890,-14.966,35.62,1.917,-1.23,-3.64,-299.0,17.751,89968.843,991.741,-273284.500,0.4,1.750,520669.0,0.786,520669.0,992.217,-934.861,0.604
520765,4,16505,89,-1.902,0.488,1.101,-7.453,2.791,38.453,2.296,0.130,-3.795,-299.0,17.746,89973.476,991.196,-273273.562,0.15,-1.537,520759.0,1.29,520759.0,990.823,-941.58,0.715
520845,4,16585,80,0.509,-2.670,-1.52,-6.123,18.532,37.430,0.254,0.673,-5.10,-267.0,17.751,89974.773,990.347,-273261.250,0.4,2.493,520839.0,0.722,520839.0,990.492,-919.62,0.683
520932,4,16672,87,3.58,-1.493,-1.73,0.306,30.546,36.56,0.779,0.718,-5.531,-299.0,17.751,89978.109,990.254,-273342.500,0.2,2.312,520926.0,-1.145,520926.0,990.254,-923.328,0.697
521012,4,16752,80,6.604,0.337,4.58,12.174,34.814,38.278,-1.179,-1.623,-4.433,-299.0,17.755,89984.39,989.5,-273231.125,0.9,5.940,521006.0,3.929,521006.0,989.456,-881.429,2.635
521092,4,16832,80,0.818,2.512,2.436,27.681,34.10,40.894,0.683,-2.934,-3.356,-299.0,17.755,90002.578,988.462,-272961.843,0.9,5.109,521086.0,2.802,521086.0,988.700,-888.797,1.582
521177,4,16917,85,-3.158,1.916,0.2,42.648,31.584,37.839,1.91,-1.218,-3.514,-267.0,17.746,90001.273,988.250,-272850.250,0.6,3.190,521171.0,0.176,521171.0,988.156,-910.750,0.1
521285,4,17025,108,-2.426,-4.63,1.783,53.566,26.965,32.709,0.783,0.680,-4.579,-299.0,17.732,90011.109,987.866,-272764.656,0.1,1.893,521279.0,1.761,521279.0,988.275,-934.397,1.158
521365,4,17105,80,0.452,-3.969,0.641,54.574,12.218,37.211,-1.30,1.309,-5.741,-267.0,17.741,90019.70,986.525,-272652.156,0.9,5.586,521359.0,1.51,521359.0,987.493,-886.462,0.416
521450,4,17190,85,2.311,-1.801,0.871,46.550,-9.967,40.821,-2.10,0.612,-5.928,-267.0,17.746,90018.789,986.644,-272583.250,0.2,2.269,521444.0,0.570,521444.0,987.281,-927.620,0.565
521530,4,17270,80,2.289,0.696,0.90,34.434,-25.36,37.342,-2.81,0.667,-5.248,-267.0,17.751,90033.710,985.490,-272545.968,0.15,-3.44,521524.0,0.361,521524.0,986.34,-915.60,0.58
521610,4,17350,80,0.358,3.883,0.140,21.119,-32.168,31.540,-1.20,0.897,-4.747,-299.0,17.760,90026.23,985.796,-272546.312,0.6,3.192,521604.0,0.370,521604.0,985.490,-912.472,0.91
521697,4,17437,87,-1.665,4.63,0.168,5.612,-29.275,30.137,1.221,0.145,-4.822,-299.0,17.741,90036.31,985.65,-272559.937,0.2,1.807,521690.0,0.53,521690.0,985.728,-939.267,0.109
521787,4,17527,90,-1.227,0.193,-1.310,-8.243,-11.634,33.177,2.279,1.83,-5.475,-299.0,17.737,90044.273,984.708,-272612.593,0.6,3.749,521781.0,-1.210,521781.0,985.91,-906.586,0.851
521867,4,17607,80,0.28,-1.852,-1.447,-14.235,10.786,31.145,1.681,1.38,-6.217,-267.0,17.751,90041.960,984.403,-272722.343,0.6,3.192,521861.0,-1.533,521861.0,984.547,-914.494,0.939
521952,4,17692,85,2.605,-3.136,0.555,-5.656,34.551,27.97,0.286,0.51,-6.645,-267.0,17.746,90052.242,984.98,-272784.343,0.7,3.748,521946.0,0.74,521946.0,983.911,-907.225,0.360
522032,4,17772,80,3.783,-1.679,1.682,13.797,44.694,29.421,-1.363,-1.518,-6.257,-267.0,17.751,90055.578,984.4,-272732.406,0.2,2.269,522026.0,1.223,522026.0,983.699,-930.656,1.92
522118,4,17858,86,2.45,0.811,0.779,38.0,39.885,33.367,-1.850,-2.938,-5.149,-299.0,17.755,90053.546,983.367,-272695.718,0.8,4.706,522112.0,0.370,522112.0,982.969,-898.380,0.506
522198,4,17938,80,-1.931,1.457,-1.755,56.547,26.498,31.905,-1.776,-2.206,-4.856,-299.0,17.760,90062.812,982.213,-272785.343,0.5,2.817,522192.0,-1.870,522192.0,982.519,-921.713,-1.140
522288,4,18028,90,-4.285,1.730,0.792,59.938,4.925,30.678,0.46,1.112,-5.414,-299.0,17.746,90071.62,981.670,-272810.593,0.1,1.914,522282.0,1.309,522282.0,982.612,-941.48,0.514
522370,4,18110,82,-1.931,-1.794,0.298,47.208,-10.830,36.714,0.692,2.555,-6.327,-299.0,17.741,90076.429,981.152,-272766.500,0.20,0.547,522364.0,0.233,522364.0,980.966,-997.442,0.193
522450,4,18190,80,0.28,-2.318,0.750,25.270,-19.628,41.449,0.74,2.919,-7.491,-267.0,17.755,90082.359,980.610,-272801.0,0.3,1.765,522444.0,0.628,522444.0,981.272,-945.130,0.487
522530,4,18270,80,4.199,0.961,-1.102,1.256,-14.922,40.368,0.235,2.79,-7.754,-267.0,17.751,90088.15,980.702,-272882.875,0.9,4.703,522524.0,-1.418,522524.0,980.542,-900.730,0.715
522614,4,18354,84,5.986,0.990,-1.159,-8.53,4.267,39.301,0.76,-1.6,-6.617,-267.0,17.746,90090.328,980.398,-272997.500,0.1,1.914,522608.0,-1.310,522608.0,980.635,-941.779,0.753
522694,4,18434,80,4.565,0.538,0.908,2.265,16.281,43.671,-1.203,-3.321,-5.215,-299.0,17.746,90100.898,979.337,-273071.62,0.21,0.434,522688.0,0.528,522688.0,978.938,-1009.383,0.590
522775,4,18515,81,0.567,2.246,-1.9,19.979,17.275,48.859,0.796,-3.646,-4.376,-299.0,17.755,90101.914,978.819,-273122.218,0.4,2.664,522768.0,0.750,522768.0,978.539,-928.736,0.655
522881,4,18621,106,-2.605,0.258,1.287,37.942,15.989,44.197,0.672,-1.808,-4.388,-267.0,17.727,90101.453,978.955,-273114.593,0.0,1.914,522875.0,0.893,522875.0,978.633,-943.10,0.836
522961,4,18701,80,-4.608,-3.783,3.520,42.838,10.947,43.189,0.267,0.507,-5.418,-267.0,17.741,90116.375,977.826,-272924.281,0.7,3.319,522955.0,3.864,522955.0,978.64,-919.28,2.286
523041,4,18781,80,-2.45,-3.905,0.304,36.787,-3.361,45.717,-2.205,2.271,-6.860,-299.0,17.746,90120.453,977.190,-272737.687,0.5,2.737,523035.0,0.799,523035.0,977.639,-928.674,0.197
523125,4,18865,84,1.198,0.294,0.678,13.636,-15.843,44.124,-2.59,3.11,-7.418,-299.0,17.751,90135.648,976.342,-272741.968,0.17,-1.66,523119.0,0.901,523119.0,976.155,-971.778,0.440
523205,4,18945,80,5.211,3.919,3.864,-5.846,-9.792,38.219,0.15,1.200,-6.430,-299.0,17.755,90134.351,976.791,-272665.937,0.2,1.807,523199.0,2.802,523199.0,976.393,-947.845,2.509
523285,4,19025,80,1.464,5.96,4.733,-8.871,8.608,37.152,2.91,-1.293,-5.240,-267.0,17.760,90140.281,975.731,-272336.625,0.10,6.653,523279.0,5.429,523279.0,975.570,-889.586,3.73
523382,4,19122,97,-1.808,1.557,0.526,5.363,35.749,34.872,3.943,0.935,-5.544,-267.0,17.746,90146.210,975.188,-272074.875,0.3,2.493,523376.0,0.32,523376.0,975.239,-935.74,0.342
523462,4,19202,80,0.35,-4.845,2.960,24.627,51.169,24.861,2.539,-1.387,-6.184,-299.0,17.751,90157.515,974.340,-271982.468,0.17,-1.552,523456.0,2.343,523456.0,973.848,-957.317,1.922
523542,4,19282,80,0.100,-5.426,4.144,52.923,45.352,20.476,-1.590,-1.116,-7.525,-267.0,17.755,90161.132,975.188,-271726.93,0.3,2.438,523536.0,4.65,523536.0,973.543,-937.251,2.691
523627,4,19367,85,1.938,-1.600,0.470,66.354,15.565,23.501,-3.163,0.411,-7.467,-267.0,17.755,90168.85,973.704,-271544.937,0.0,2.26,523621.0,0.196,523621.0,973.517,-946.48,0.305
523707,4,19447,80,0.832,1.378,0.908,59.456,-17.816,22.11,-2.798,0.7,-6.824,-267.0,17.755,90172.437,973.517,-271588.906,0.7,3.568,523701.0,-1.296,523701.0,972.907,-920.872,0.590
523788,4,19528,81,0.760,3.524,2.242,37.854,-36.42,15.960,0.273,0.730,-6.340,-267.0,17.760,90178.367,972.152,-271559.656,0.9,5.69,523781.0,2.27,523781.0,972.152,-905.667,1.456
523883,4,19623,95,-3.29,1.758,1.43,8.126,-35.33,20.491,2.487,2.134,-6.883,-299.0,17.746,90181.984,971.677,-271409.500,0.0,1.975,523877.0,1.101,523877.0,972.178,-949.169,0.677
523963,4,19703,80,0.7,0.638,0.980,-13.943,-13.811,24.86,3.644,1.545,-7.369,-299.0,17.751,90190.976,970.855,-271398.937,0.17,-1.559,523957.0,0.836,523957.0,970.787,-959.947,0.636
524043,4,19783,80,2.914,-4.637,2.960,-15.916,19.891,22.756,1.723,0.908,-7.709,-267.0,17.769,90200.242,970.524,-271315.156,0.5,1.702,524037.0,2.931,524037.0,971.211,-956.388,1.922
524128,4,19868,85,3.180,-3.79,3.398,4.983,42.575,25.124,-1.317,-1.852,-7.828,-267.0,17.764,90194.312,969.914,-271055.281,0.14,-2.678,524122.0,3.183,524122.0,969.939,-936.137,2.206
524208,4,19948,80,2.397,0.351,0.162,32.826,43.57,32.958,-2.198,-2.365,-6.959,-299.0,17.760,90207.195,970.7,-270924.93,0.1,2.102,524202.0,0.96,524202.0,969.846,-947.712,0.105
524294,4,20034,86,-2.146,1.880,0.261,53.697,24.422,34.989,-2.143,-1.406,-6.349,-267.0,17.751,90207.195,969.464,-270910.875,0.4,1.702,524288.0,0.211,524288.0,970.270,-957.561,0.169
524384,4,20124,90,-4.902,3.661,3.563,54.472,0.935,36.129,0.548,1.658,-6.626,-267.0,17.764,90218.31,968.405,-270745.875,0.9,7.556,524378.0,3.455,524378.0,969.422,-891.309,2.314
524464,4,20204,80,-2.921,-1.636,2.680,35.837,-9.953,43.642,1.998,3.176,-7.668,-267.0,17.751,90231.382,967.701,-270491.812,0.18,-1.67,524458.0,2.895,524458.0,967.939,-981.216,1.740
524543,4,20283,79,0.71,-3.58,0.60,15.112,-6.284,47.851,2.31,2.933,-8.809,-299.0,17.760,90231.382,967.65,-270402.531,0.13,-27.998,524537.0,0.635,524537.0,966.904,-833.205,0.39
524623,4,20363,80,6.187,-4.450,4.310,5.992,9.850,46.346,1.26,0.16,-8.828,-299.0,17.769,90242.687,966.854,-270300.62,0.1,1.914,524617.0,3.197,524617.0,966.998,-954.841,2.798
524703,4,20443,80,5.498,-1.844,4.862,18.824,17.275,47.807,-1.889,-2.615,-7.987,-267.0,17.769,90246.304,965.820,-269997.187,0.12,30.361,524697.0,4.374,524697.0,966.32,-830.794,3.157
524784,4,20524,81,2.907,3.215,1.862,33.411,8.257,49.137,-1.489,-3.428,-6.564,-299.0,17.764,90248.617,965.914,-269703.906,0.0,2.0,524778.0,2.867,524778.0,966.32,-953.610,1.209
524865,4,20605,81,-2.81,2.821,0.779,43.846,-3.507,43.846,0.336,-3.112,-5.823,-267.0,17.769,90241.945,966.338,-269632.468,0.6,3.72,524858.0,-1.80,524858.0,965.515,-934.656,0.506
524971,4,20711,106,-6.317,0.71,1.223,35.793,-16.91,40.470,1.40,1.335,-6.732,-267.0,17.751,90254.359,965.626,-269598.343,0.3,2.734,524965.0,1.718,524965.0,965.91,-940.880,0.794
525051,4,20791,80,-2.986,-2.620,-1.784,13.344,-14.484,43.437,1.420,3.228,-7.967,-299.0,17.755,90260.484,964.405,-269586.625,0.4,2.492,525045.0,-1.425,525045.0,964.761,-944.821,-1.158
525131,4,20871,80,0.401,-2.749,-2.243,-5.217,3.712,40.236,1.475,3.9,-9.142,-267.0,17.764,90263.539,964.312,-269740.875,0.7,3.739,525125.0,-2.430,525125.0,964.126,-927.225,-1.457
525211,4,20951,80,5.965,-3.969,3.520,-1.987,31.452,32.826,0.974,0.741,-9.423,-267.0,17.764,90274.109,964.218,-269734.312,0.7,3.414,525205.0,2.594,525205.0,963.540,-931.978,2.286
525296,4,21036,85,6.719,0.875,4.575,26.249,42.312,33.323,-1.111,-2.601,-8.246,-299.0,17.774,90281.335,963.41,-269421.968,0.11,105.356,525290.0,4.755,525290.0,962.550,-778.172,2.971
525376,4,21116,80,2.971,1.543,0.720,53.493,29.41,32.782,-1.574,-4.22,-6.754,-267.0,17.769,90285.968,963.159,-269186.0,0.4,2.495,525370.0,1.144,525370.0,962.218,-947.90,0.468
525467,4,21207,91,-3.65,2.325,1.503,66.866,3.98,20.111,-1.122,-2.743,-6.189,-267.0,17.755,90290.875,962.499,-269075.0,0.2,2.228,525461.0,1.295,525461.0,962.32,-952.710,0.976
525553,4,21293,86,-5.89,0.832,2.27,57.190,-21.850,15.39,0.256,0.602,-6.772,-299.0,17.760,90297.554,961.135,-268929.62,0.2,1.843,525547.0,2.99,525547.0,962.218,-961.370,1.316
525633,4,21373,80,-2.699,-1.62,-1.447,32.227,-35.749,19.511,0.777,2.222,-7.582,-267.0,17.769,90306.546,960.500,-268874.281,0.14,-5.577,525627.0,0.729,525627.0,961.66,-912.144,0.939
525713,4,21453,80,0.7,0.839,-2.243,1.125,-31.847,22.274,1.216,2.314,-8.275,-299.0,17.774,90303.203,960.712,-268993.500,0.10,7.522,525707.0,-2.251,525707.0,960.220,-899.583,-1.457
525798,4,21538,85,3.639,-1.155,2.730,-20.447,-4.486,19.102,1.187,0.316,-8.199,-267.0,17.769,90315.812,960.8,-268972.812,0.1,1.914,525792.0,2.737,525792.0,960.313,-961.727,1.773
525879,4,21619,81,3.969,0.366,2.472,-13.709,28.32,20.783,0.16,-1.779,-7.630,-299.0,17.774,90320.171,959.255,-268767.562,0.4,2.662,525872.0,2.393,525872.0,959.915,-947.370,1.605
525969,4,21709,90,2.548,1.564,1.453,11.546,45.513,26.995,0.323,-3.9,-6.551,-299.0,17.760,90326.375,958.781,-268582.93,0.5,3.183,525963.0,1.682,525963.0,959.373,-939.663,0.943
526055,4,21795,86,-1.543,0.165,0.268,40.324,45.176,26.585,0.605,-2.809,-6.41,-267.0,17.760,90327.398,958.687,-268508.62,0.0,2.25,526049.0,0.38,526049.0,959.348,-960.347,0.174
526135,4,21875,80,-4.989,0.725,1.661,59.134,28.924,25.285,-1.178,0.317,-6.504,-299.0,17.764,90331.7,958.594,-268448.375,0.14,-5.566,526129.0,1.453,526129.0,958.195,-915.58,1.78
526215,4,21955,80,-3.115,0.875,1.43,59.324,4.735,30.283,0.659,2.323,-7.245,-299.0,17.778,90344.632,957.112,-268336.156,0.1,2.133,526209.0,1.352,526209.0,958.77,-959.44,0.677
526300,4,22040,85,0.78,-1.744,0.871,39.725,-18.415,38.322,0.184,2.803,-7.860,-267.0,17.760,90348.523,956.477,-268243.468,0.11,17.582,526294.0,0.828,526294.0,957.138,-865.92,0.565
526380,4,22120,80,2.605,0.567,1.194,13.256,-22.478,40.61,0.305,1.981,-8.8,-299.0,17.769,90350.843,956.477,-268184.656,0.3,2.439,526374.0,0.641,526374.0,956.833,-953.639,0.775
526480,4,22220,100,4.91,0.653,1.151,-5.568,-4.48,39.155,0.998,0.768,-6.979,-267.0,17.760,90360.382,956.28,-268088.531,0.0,2.102,526474.0,1.280,526474.0,956.739,-961.740,0.747
526560,4,22300,80,2.476,0.200,0.89,-1.169,14.469,42.34,0.654,-2.556,-6.85,-267.0,17.760,90364.742,954.971,-268027.406,0.25,0.22,526554.0,0.247,526554.0,954.716,-1166.860,0.57
526640,4,22380,80,0.358,0.114,0.361,16.311,24.42,45.1,0.40,-2.632,-5.769,-299.0,17.760,90368.78,954.267,-268017.687,0.6,3.67,526634.0,0.4,526634.0,954.200,-946.344,0.235
526724,4,22464,84,-1.981,0.272,0.476,33.75,22.274,45.16,0.289,-1.240,-5.910,-299.0,17.760,90374.7,955.89,-268002.968,0.4,1.715,526718.0,0.354,526718.0,954.598,-971.410,0.309
526804,4,22544,80,-1.852,-2.167,1.323,40.134,14.147,44.840,0.491,0.172,-6.194,-267.0,17.764,90379.664,954.56,-267932.656,0.11,17.633,526798.0,1.402,526798.0,953.658,-867.618,0.859
526885,4,22625,81,-1.227,-2.533,0.972,38.234,2.733,45.878,-1.194,1.16,-6.613,-299.0,17.769,90384.23,953.540,-267839.968,0.4,2.493,526878.0,0.914,526878.0,953.327,-956.818,0.631
526990,4,22730,105,0.100,1.134,0.291,20.330,-14.834,46.550,0.816,1.702,-6.850,-267.0,17.755,90395.406,953.346,-267806.562,0.3,2.660,526984.0,0.284,526984.0,952.930,-954.363,0.189
527070,4,22810,80,1.844,2.935,0.921,6.810,-7.424,44.884,0.790,0.553,-6.305,-299.0,17.760,90392.546,952.457,-267786.218,0.1,2.167,527064.0,0.792,527064.0,952.786,-963.260,0.598
527150,4,22890,80,1.141,2.261,2.501,5.290,6.650,44.475,1.532,-1.163,-5.638,-299.0,17.769,90402.835,951.212,-267644.718,0.20,0.556,527144.0,2.745,527144.0,951.144,-1025.832,1.624
527230,4,22970,80,-1.299,1.241,1.395,11.838,19.321,44.592,1.576,0.707,-5.861,-299.0,17.769,90406.171,951.94,-267463.593,0.9,5.52,527224.0,1.783,527224.0,950.391,-926.475,0.906
527310,4,23050,80,0.358,0.0,0.885,22.493,29.435,41.449,2.26,0.334,-6.29,-299.0,17.769,90418.781,949.943,-267373.187,0.3,1.766,527304.0,0.476,527304.0,950.695,-975.82,0.575
527390,4,23130,80,1.529,-3.689,2.134,37.620,32.519,38.819,0.338,-1.148,-6.154,-299.0,17.764,90431.664,950.36,-267265.281,0.15,-2.721,527384.0,2.221,527384.0,949.426,-955.896,1.386
527480,4,23220,90,0.35,-1.981,0.900,51.753,16.252,39.9,-1.856,0.610,-6.516,-299.0,17.760,90424.984,949.165,-267107.375,0.0,1.975,527474.0,1.287,527474.0,949.451,-970.777,0.584
527560,4,23300,80,1.155,0.358,0.735,50.833,-5.685,38.541,-1.471,0.229,-6.43,-299.0,17.746,90430.914,948.767,-267032.187,0.5,1.681,527554.0,0.591,527554.0,949.918,-978.99,0.477
527640,4,23380,80,0.122,0.473,1.86,41.610,-20.388,36.202,0.884,0.717,-5.354,-299.0,17.774,90446.585,948.978,-266967.343,0.12,-30.148,527634.0,1.29,527634.0,948.886,-848.411,0.705
527720,4,23460,80,-2.857,0.803,1.883,28.164,-28.471,33.718,0.519,0.36,-5.308,-267.0,17.760,90438.609,948.250,-266858.843,0.6,3.68,527714.0,1.682,527714.0,948.369,-952.83,1.223
527800,4,23540,80,-2.562,1.406,1.625,9.32,-27.9,31.467,0.301,1.313,-5.679,-267.0,17.764,90448.898,947.803,-266735.125,0.15,-2.725,527794.0,1.409,527794.0,947.101,-958.150,1.55
527880,4,23620,80,0.136,0.631,0.262,-8.111,-15.770,30.517,1.49,1.417,-5.905,-299.0,17.760,90455.101,946.466,-266684.625,0.1,2.103,527874.0,0.147,527874.0,947.7,-970.557,0.170
527965,4,23705,85,1.923,0.78,0.383,-16.369,6.679,28.997,0.826,0.135,-5.757,-267.0,17.769,90458.445,946.559,-266679.562,0.6,3.179,527958.0,0.268,527958.0,946.466,-952.249,0.248
528054,4,23794,89,1.658,0.430,2.163,-9.690,26.425,29.421,0.90,0.839,-5.491,-267.0,17.760,90460.757,945.900,-266575.593,0.1,2.102,528048.0,2.41,528048.0,946.372,-970.564,1.405
528134,4,23874,80,1.313,1.62,0.469,4.560,39.82,29.406,0.487,0.860,-5.189,-267.0,17.769,90474.664,945.688,-266466.812,0.9,5.56,528128.0,0.677,528128.0,945.619,-932.102,0.304
528220,4,23960,86,1.550,0.43,0.620,22.712,46.653,27.711,0.897,-1.230,-4.724,-299.0,17.769,90476.976,944.445,-266406.687,0.10,17.416,528214.0,0.720,528214.0,944.680,-877.50,0.402
528300,4,24040,80,0.165,-2.289,1.22,42.268,45.293,25.694,0.100,-1.165,-4.801,-299.0,17.760,90483.929,944.538,-266341.281,0.0,2.0,528294.0,0.914,528294.0,944.680,-975.437,0.663
528380,4,24120,80,-1.371,-1.600,1.445,56.109,33.615,26.731,-1.107,0.104,-5.230,-267.0,17.769,90483.929,943.692,-266253.468,0.9,4.653,528374.0,1.280,528374.0,943.954,-937.730,0.938
528464,4,24204,84,0.567,0.595,1.395,61.64,13.694,33.250,0.745,0.251,-4.889,-299.0,17.760,90491.906,943.269,-266167.593,0.11,29.444,528458.0,0.763,528458.0,942.989,-854.257,0.906
528544,4,24284,80,0.28,0.681,0.634,59.777,-3.171,30.868,0.985,0.422,-4.447,-267.0,17.769,90500.898,942.965,-266105.343,0.0,2.0,528538.0,0.792,528538.0,942.989,-976.567,0.412
528634,4,24374,90,-2.548,0.782,0.936,51.973,-19.467,26.775,-1.97,0.351,-4.541,-267.0,17.769,90508.398,943.33,-266045.968,0.1,2.132,528628.0,0.526,528628.0,942.871,-974.853,0.607
528721,4,24461,87,-1.672,1.536,1.424,33.440,-31.58,28.61,0.95,1.373,-4.651,-267.0,17.760,90515.78,941.882,-265952.656,0.15,-1.589,528715.0,1.618,528715.0,941.485,-988.72,0.924
528801,4,24541,80,0.7,0.710,0.548,16.223,-32.95,29.903,0.675,1.103,-4.683,-267.0,17.764,90519.710,940.944,-265868.562,0.4,2.662,528795.0,0.483,528795.0,941.87,-965.475,0.356
528881,4,24621,80,1.406,0.782,0.190,0.0,-25.51,31.218,0.504,0.617,-4.733,-267.0,17.778,90523.320,940.851,-265852.531,0.2,2.309,528875.0,0.83,528875.0,940.851,-972.291,0.123
528966,4,24706,85,1.859,1.808,2.953,-10.508,-12.335,30.268,0.916,0.228,-4.351,-267.0,17.764,90536.953,940.403,-265740.437,0.11,17.157,528959.0,2.752,528959.0,939.912,-882.675,1.917
529045,4,24785,79,0.437,1.586,1.560,-13.387,2.601,31.657,1.473,0.559,-4.90,-267.0,17.769,90533.609,940.522,-265559.31,0.0,2.0,529039.0,1.783,529039.0,939.912,-979.808,1.13
529157,4,24897,112,0.588,-1.457,0.304,-6.94,26.118,31.467,1.477,0.660,-4.20,-267.0,17.741,90543.695,938.782,-265435.281,0.0,1.976,529151.0,0.426,529151.0,939.937,-980.509,0.197
529237,4,24977,80,0.904,-3.424,1.445,4.486,37.182,31.394,0.252,0.767,-4.350,-267.0,17.755,90544.445,939.111,-265368.437,0.20,0.547,529231.0,1.244,529231.0,938.290,-1038.747,0.938
529317,4,25057,80,1.19,-1.536,0.577,17.714,39.432,35.267,-1.317,0.471,-4.452,-267.0,17.760,90545.468,937.986,-265288.656,0.7,3.562,529311.0,0.749,529311.0,937.681,-954.996,0.374
529397,4,25137,80,0.459,0.165,-1.526,29.55,35.969,38.731,0.955,0.697,-3.924,-299.0,17.764,90551.125,938.502,-265308.812,0.7,1.612,529391.0,-1.253,529391.0,938.315,-990.568,0.991
529477,4,25217,80,-1.26,0.674,0.284,39.856,30.634,40.32,0.770,0.727,-3.522,-267.0,17.764,90560.125,937.563,-265397.0,0.10,6.557,529471.0,0.951,529471.0,937.495,-928.53,0.184
529557,4,25297,80,-2.993,-1.19,3.549,44.577,20.651,40.236,-1.51,0.548,-3.782,-267.0,17.769,90566.46,936.930,-265270.718,0.2,2.268,529551.0,4.109,529551.0,937.283,-977.60,2.304
529647,4,25387,90,0.681,0.710,2.350,43.437,8.988,43.174,0.964,1.145,-3.893,-267.0,17.764,90566.46,936.482,-264988.437,0.5,3.63,529641.0,2.163,529641.0,936.767,-963.562,1.526
529727,4,25467,80,0.373,0.366,1.582,37.912,-1.373,44.957,0.999,0.726,-3.751,-299.0,17.764,90581.242,936.177,-264831.125,0.8,3.928,529721.0,1.768,529721.0,936.109,-953.312,1.27
529807,4,25547,80,0.825,2.333,4.403,30.780,-9.207,44.957,0.300,0.785,-3.604,-267.0,17.764,90584.585,935.544,-264592.0,0.7,3.730,529801.0,4.209,529801.0,935.475,-956.976,2.859
529887,4,25627,80,-1.363,1.651,3.10,22.551,-10.917,45.995,0.383,1.230,-3.722,-267.0,17.764,90591.539,934.394,-264288.843,0.9,5.15,529881.0,3.369,529881.0,934.724,-943.166,1.955
529968,4,25708,81,0.351,1.572,0.943,13.95,-7.234,46.273,0.907,1.181,-3.813,-299.0,17.769,90602.101,933.971,-264106.843,0.1,2.103,529961.0,1.180,529961.0,934.630,-982.548,0.612
530047,4,25787,79,2.562,0.78,2.228,8.301,0.29,46.316,1.334,0.105,-3.391,-267.0,17.769,90603.125,933.432,-263982.562,0.5,2.730,530041.0,1.926,530041.0,934.208,-972.69,1.447
530126,4,25866,79,1.256,1.184,1.876,9.500,9.178,46.945,1.432,0.879,-2.952,-267.0,17.760,90606.734,933.220,-263827.218,0.13,-16.906,530120.0,2.5,530120.0,933.152,-890.329,1.218
530216,4,25956,90,0.14,0.868,1.732,15.843,19.731,45.805,1.711,0.783,-2.843,-267.0,17.755,90607.0,932.376,-263655.437,0.4,2.809,530210.0,1.811,530210.0,932.705,-971.4,1.125
530296,4,26036,80,1.141,-1.4,2.106,22.741,26.731,44.577,1.342,0.917,-2.740,-267.0,17.760,90615.250,931.344,-263526.0,0.9,4.664,530290.0,1.424,530290.0,931.978,-948.867,1.367
530376,4,26116,80,1.686,-1.787,1.984,31.394,28.997,42.765,0.128,-1.360,-2.681,-267.0,17.760,90619.609,932.376,-263382.468,0.4,2.489,530370.0,2.163,530370.0,931.649,-978.436,1.288
530456,4,26196,80,0.969,0.940,1.510,40.616,26.147,41.172,0.612,-1.489,-2.526,-299.0,17.760,90628.882,931.133,-263245.562,0.2,2.268,530450.0,1.259,530450.0,931.438,-982.309,0.980
530536,4,26276,80,0.93,0.610,0.555,47.895,19.921,39.359,0.676,-1.268,-2.366,-267.0,17.769,90627.859,931.506,-263165.500,0.3,2.437,530530.0,0.742,530530.0,931.133,-979.911,0.360
530626,4,26366,90,0.681,-1.342,2.637,53.405,11.327,37.240,0.766,0.649,-2.267,-267.0,17.755,90634.804,930.872,-263026.343,0.1,1.914,530620.0,2.350,530620.0,931.227,-989.509,1.712
530733,4,26473,107,0.768,-1.48,2.12,54.77,0.760,36.232,-1.32,0.121,-2.129,-267.0,17.741,90638.687,930.98,-262802.500,0.6,4.662,530727.0,1.833,530727.0,930.500,-950.796,1.307
530813,4,26553,80,-1.4,0.803,1.567,52.236,-9.105,35.311,-1.158,0.149,-2.15,-267.0,17.751,90651.23,929.488,-262668.156,0.1,2.166,530807.0,1.524,530807.0,930.357,-986.301,1.18
530897,4,26637,84,-1.371,0.251,2.307,46.989,-17.509,33.235,-1.119,0.511,-1.950,-267.0,17.755,90651.23,929.606,-262514.156,0.12,-31.62,530891.0,2.142,530891.0,929.326,-867.114,1.498
530978,4,26718,81,0.976,0.272,2.99,40.368,-24.71,32.928,0.788,0.602,-1.793,-267.0,17.760,90653.78,928.879,-262348.250,0.2,2.267,530971.0,2.5,530971.0,929.115,-984.622,1.363
531057,4,26797,79,-1.91,0.875,0.239,33.177,-27.579,31.467,0.378,0.477,-1.582,-267.0,17.755,90653.343,928.153,-262242.343,0.0,2.0,531051.0,0.641,531051.0,929.115,-991.211,0.155
531143,4,26883,86,-1.880,0.983,1.453,26.746,-29.245,31.949,0.88,0.699,-1.598,-299.0,17.755,90666.976,927.309,-262165.843,0.9,7.435,531137.0,1.137,531137.0,928.271,-932.509,0.943
531234,4,26974,91,-1.428,1.141,0.548,18.181,-30.400,32.358,0.80,1.166,-1.803,-267.0,17.764,90671.882,926.955,-262084.578,0.11,-16.925,531228.0,0.649,531228.0,927.215,-896.228,0.356
531314,4,27054,80,0.143,1.392,1.402,9.690,-28.456,32.22,0.263,0.878,-1.751,-267.0,17.755,90677.539,926.980,-262003.656,0.1,1.914,531308.0,1.374,531308.0,927.309,-994.654,0.910
531399,4,27139,85,0.301,1.773,1.955,0.409,-25.241,32.651,0.582,0.32,-1.408,-299.0,17.746,90683.468,926.229,-261857.265,0.11,17.253,531393.0,2.70,531393.0,926.371,-896.160,1.269
531479,4,27219,80,-1.521,1.708,2.450,0.847,-20.505,34.215,0.854,0.240,-1.277,-267.0,17.755,90685.781,926.42,-261683.890,0.5,2.729,531473.0,2.264,531473.0,925.949,-978.911,1.591
531565,4,27305,86,-1.378,0.976,2.967,-2.996,-15.697,36.378,0.971,0.543,-1.621,-267.0,17.760,90687.78,925.782,-261442.562,0.8,5.3,531559.0,3.348,531559.0,925.198,-952.602,1.927
531645,4,27385,80,0.43,0.265,2.802,-8.520,-9.368,36.27,0.380,0.673,-1.921,-299.0,17.760,90687.78,925.689,-261184.187,0.4,1.715,531639.0,3.111,531639.0,925.597,-1001.207,1.819
531735,4,27475,90,1.284,1.198,1.409,-11.34,0.365,35.33,0.445,0.58,-1.895,-267.0,17.746,90691.976,924.845,-260991.390,0.9,6.557,531729.0,1.173,531729.0,924.776,-941.743,0.915
531814,4,27554,79,0.854,3.172,0.111,-11.107,0.964,34.595,0.33,0.474,-1.516,-267.0,17.751,90702.273,924.329,-260942.671,0.1,2.103,531808.0,0.60,531808.0,924.682,-992.472,0.72
531894,4,27634,80,0.229,3.373,0.413,-9.251,5.466,36.816,1.226,0.716,-1.121,-267.0,17.751,90699.687,924.236,-260960.812,0.4,2.488,531888.0,0.513,531888.0,924.354,-985.243,0.268
531974,4,27714,80,0.452,0.732,1.295,-7.234,13.738,37.503,1.573,0.366,-1.106,-299.0,17.760,90713.320,924.329,-260921.812,0.2,2.266,531968.0,1.488,531968.0,924.143,-989.936,0.841
532055,4,27795,81,0.71,-1.328,1.898,-4.969,20.213,36.845,0.186,0.246,-1.653,-267.0,17.755,90709.976,923.696,-260792.359,0.9,4.656,532048.0,1.747,532048.0,923.417,-957.838,1.232
532134,4,27874,79,1.521,0.236,0.2,-4.63,23.107,36.860,0.851,0.340,-1.876,-267.0,17.760,90716.929,923.417,-260708.281,0.2,1.826,532128.0,0.354,532128.0,923.628,-999.755,0.1
532214,4,27954,80,2.569,2.203,0.363,-1.636,24.451,37.532,0.428,0.514,-1.292,-267.0,17.764,90714.882,922.877,-260704.593,0.13,-17.265,532208.0,0.262,532208.0,922.573,-899.807,0.235
532303,4,28043,89,0.681,2.9,0.203,3.317,27.155,38.979,1.10,-1.412,0.431,-267.0,17.760,90721.828,923.157,-260722.531,0.4,1.715,532297.0,0.140,532297.0,922.970,-1003.804,0.132
532383,4,28123,80,-1.399,0.64,0.11,7.73,32.300,38.322,1.335,0.543,0.533,-267.0,17.755,90724.148,922.337,-260715.984,0.10,6.518,532377.0,0.304,532377.0,922.151,-943.664,0.7
532463,4,28203,80,0.409,-1.715,-1.80,9.792,36.889,35.647,0.378,0.619,-1.111,-267.0,17.755,90727.492,922.33,-260745.890,0.3,1.766,532457.0,-1.52,532457.0,922.455,-1002.579,0.701
532544,4,28284,81,2.175,-1.500,0.607,10.654,37.898,36.42,0.689,0.498,-1.249,-267.0,17.760,90736.492,921.915,-260819.203,0.12,-31.833,532538.0,0.757,532538.0,921.425,-873.392,0.394
532624,4,28364,80,3.259,0.904,0.771,14.498,36.27,37.985,0.747,-1.11,0.399,-299.0,17.764,90732.125,921.493,-260820.968,0.7,3.727,532618.0,0.713,532618.0,920.791,-969.680,0.500
532704,4,28444,80,0.122,1.923,0.944,18.605,35.545,38.745,0.733,-1.495,0.358,-267.0,17.755,90740.101,920.674,-260832.500,0.2,2.265,532698.0,-1.2,532698.0,920.581,-992.756,0.613
532783,4,28523,79,-1.119,0.646,-2.875,21.382,39.973,35.662,1.564,0.516,0.376,-267.0,17.764,90748.78,920.650,-260976.312,0.2,2.268,532777.0,-2.638,532777.0,920.370,-992.624,-1.867
532890,4,28630,107,0.14,-3.912,0.592,21.61,44.66,31.525,0.141,0.431,0.374,-267.0,17.737,90748.875,920.86,-261164.953,0.2,2.436,532884.0,0.887,532884.0,920.66,-989.848,0.384
532970,4,28710,80,1.708,-1.636,0.239,22.171,41.479,34.580,-1.641,0.120,0.591,-267.0,17.755,90749.632,919.664,-261194.0,0.11,10.277,532964.0,0.160,532964.0,919.173,-926.487,0.155
533056,4,28796,86,1.48,1.629,-1.511,24.875,36.261,38.877,0.675,-1.96,0.174,-299.0,17.755,90766.882,919.360,-261244.703,0.1,2.103,533049.0,-1.353,533049.0,919.79,-997.466,0.981
533135,4,28875,79,0.193,1.119,-2.330,27.404,36.889,37.883,1.54,-1.292,0.777,-299.0,17.751,90755.562,918.752,-261392.343,0.4,1.752,533129.0,-2.337,533129.0,919.408,-1004.961,-1.513
533215,4,28955,80,28.110,-11.657,-37.956,-29.201,15.317,-10.143,-2.700,9.987,10.6,-267.0,17.764,90781.46,915.706,-263050.343,0.0,1.975,533209.0,-39.112,533209.0,919.433,-1000.500,-24.649
533301,4,29041,86,14.916,-26.495,-12.638,53.259,-3.156,-36.553,4.794,3.813,10.6,-267.0,17.751,90764.828,918.845,-265325.312,0.16,-1.455,533295.0,-13.794,533295.0,918.26,-1014.924,-8.207
533392,4,29132,91,10.243,-21.40,-19.264,-16.881,-17.553,-23.808,0.263,-5.30,10.6,-267.0,17.755,90762.515,918.375,-266681.812,0.7,1.579,533386.0,-16.19,533386.0,918.752,-1011.95,-12.510
533472,4,29212,80,10.918,-22.892,-8.661,56.416,31.102,-9.149,0.735,4.610,10.6,-267.0,17.746,90768.703,918.914,-267652.406,0.7,3.722,533466.0,-8.245,533466.0,918.119,-972.624,-5.624
533557,4,29297,85,-166.109,-65.503,-35.20,-18.795,35.48,-19.307,-4.392,-4.39,-10.8,-267.0,17.755,90775.390,918.399,-270927.531,0.5,2.804,533551.0,-68.817,533551.0,917.673,-984.796,-22.742
533637,4,29377,80,0.638,-3.704,-10.176,45.849,44.402,-11.107,1.504,-2.990,-10.8,-299.0,17.746,90769.734,918.164,-274167.375,0.6,1.649,533631.0,-12.178,533631.0,918.213,-1009.886,-6.608
533717,4,29457,80,1.744,-4.795,-10.276,56.547,-18.152,-19.277,-2.887,-1.933,-10.8,-299.0,17.737,90768.968,918.257,-275070.187,0.4,2.545,533711.0,-10.391,533711.0,917.860,-990.217,-6.673
533797,4,29537,80,5.541,-13.57,-13.198,-20.388,-24.437,-13.928,0.889,0.507,-10.8,-267.0,17.741,90768.703,918.350,-275894.312,0.4,1.752,533791.0,-10.211,533791.0,918.188,-1006.331,-8.570
533877,4,29617,80,3.661,-26.955,-11.769,29.435,50.73,-19.307,0.520,-1.704,-10.8,-267.0,17.732,90768.968,918.890,-276770.718,0.2,2.267,533871.0,-11.697,533871.0,917.977,-995.315,-7.643
533966,4,29706,89,2.519,-4.249,-11.417,44.840,-33.265,-16.486,0.638,1.43,-10.8,-299.0,17.718,90771.289,918.444,-277785.312,0.4,1.715,533960.0,-11.102,533960.0,918.375,-1006.400,-7.414
534046,4,29786,80,13.875,2.778,-18.761,-19.336,-23.633,-19.497,0.120,2.43,-10.8,-299.0,17.727,90771.289,918.233,-278860.406,0.1,2.133,534040.0,-15.775,534040.0,918.257,-998.156,-12.183
534127,4,29867,81,5.211,-10.803,-12.595,-9.222,38.59,-21.923,0.810,0.520,-10.8,-299.0,17.727,90764.335,918.22,-280025.656,0.2,2.228,534120.0,-13.356,534120.0,918.71,-995.663,-8.179
534212,4,29952,85,-3.366,-9.23,-10.319,32.753,46.843,-17.465,0.368,0.27,-8.969,-267.0,17.727,90773.335,918.468,-281060.375,0.2,1.826,534206.0,-10.707,534206.0,918.281,-1004.397,-6.701
534292,4,30032,80,-8.563,-4.658,-9.967,53.244,30.298,-16.427,0.0,0.26,-5.333,-267.0,17.732,90773.335,918.257,-281904.906,0.0,1.976,534286.0,-10.405,534286.0,918.305,-1001.51,-6.473
534372,4,30112,80,-9.310,0.918,-10.491,58.930,17.158,-17.246,0.12,0.77,-1.784,-267.0,17.732,90766.656,918.139,-282745.125,0.2,2.266,534366.0,-10.599,534366.0,918.95,-994.810,-6.813
534463,4,30203,91,-9.339,-2.9,-10.319,59.149,17.71,-18.342,0.116,0.46,1.593,-267.0,17.727,90766.390,918.890,-283686.812,0.4,1.715,534457.0,-10.97,534457.0,918.492,-1007.387,-6.701
534570,4,30310,107,-8.865,-4.981,-10.255,55.817,25.197,-17.553,0.145,0.10,1.408,-267.0,17.718,90766.921,918.959,-284769.500,0.5,3.554,534564.0,-10.140,534564.0,917.884,-974.435,-6.659
534650,4,30390,80,-8.563,-5.570,-10.326,54.837,27.389,-17.480,0.12,0.31,0.193,-267.0,17.737,90770.0,918.233,-285589.625,0.0,1.935,534644.0,-10.362,534644.0,917.953,-1002.233,-6.706
534734,4,30474,84,-8.915,-4.414,-10.283,55.100,26.615,-17.553,0.22,0.21,0.40,-299.0,17.732,90774.367,917.766,-286458.281,0.4,1.739,534728.0,-10.319,534728.0,918.305,-1006.968,-6.678
534814,4,30554,80,-8.736,-5.3,-10.326,54.282,27.871,-17.217,0.25,0.22,0.35,-299.0,17.737,90770.757,918.609,-287280.125,0.1,1.914,534808.0,-10.226,534808.0,918.399,-1003.287,-6.706
534894,4,30634,80,-8.628,-4.809,-10.312,54.545,27.228,-17.100,0.29,0.20,0.59,-267.0,17.746,90768.437,918.305,-288095.656,0.1,2.103,534888.0,-10.161,534888.0,918.305,-998.420,-6.696
534974,4,30714,80,-8.599,-4.881,-10.247,54.545,26.995,-17.290,0.26,0.21,0.35,-267.0,17.741,90766.125,918.71,-288909.750,0.3,2.436,534968.0,-10.190,534968.0,918.1,-992.34,-6.654
535065,4,30805,91,-8.664,-4.831,-10.298,54.267,27.287,-18.517,0.27,0.17,0.33,-299.0,17.737,90766.390,918.281,-289840.343,0.2,2.266,535059.0,-10.262,535059.0,917.791,-995.187,-6.687
535145,4,30885,80,-8.657,-4.917,-10.298,54.896,27.477,-18.474,0.25,0.23,0.26,-299.0,17.737,90768.437,918.188,-290649.937,0.3,1.766,535138.0,-10.233,535138.0,918.95,-1006.910,-6.687
535224,4,30964,79,-8.693,-4.888,-10.384,55.276,26.980,-17.845,0.28,0.21,0.38,-267.0,17.751,90769.460,918.375,-291468.906,0.2,2.229,535218.0,-10.240,535218.0,917.908,-996.155,-6.743
535304,4,31044,80,-8.628,-4.852,-10.211,54.808,27.404,-16.910,0.23,0.22,0.36,-299.0,17.755,90766.125,918.703,-292287.0,0.3,1.766,535298.0,-10.211,535298.0,918.213,-1006.79,-6.631
535384,4,31124,80,-8.807,-4.859,-10.326,54.691,27.258,-17.187,0.27,0.21,0.38,-267.0,17.746,90768.437,917.977,-293106.250,0.1,1.895,535378.0,-10.269,535378.0,918.330,-1003.316,-6.706
535464,4,31204,80,-8.657,-4.874,-10.312,55.305,27.769,-16.822,0.29,0.21,0.32,-299.0,17.746,90760.460,917.884,-293926.656,0.3,2.435,535458.0,-10.240,535458.0,918.26,-991.750,-6.696
535544,4,31284,80,-8.614,-4.874,-10.255,55.334,27.272,-17.217,0.24,0.20,0.30,-267.0,17.737,90771.781,918.188,-294750.781,0.4,2.489,535538.0,-10.362,535538.0,917.697,-991.97,-6.659
535639,4,31379,95,-8.700,-4.859,-10.362,54.486,27.857,-17.363,0.26,0.20,0.36,-299.0,17.727,90762.781,919.7,-295728.750,0.7,1.571,535633.0,-10.226,535633.0,918.448,-1010.927,-6.729
535719,4,31459,80,-8.642,-4.881,-10.233,54.516,26.892,-16.427,0.28,0.20,0.34,-299.0,17.741,90768.437,918.679,-296549.156,0.3,1.781,535713.0,-10.283,535713.0,918.727,-1005.782,-6.645
535799,4,31539,80,-8.571,-4.895,-10.262,55.203,27.170,-17.290,0.28,0.14,0.38,-299.0,17.732,90768.703,918.164,-297372.437,0.14,-5.773,535793.0,-10.298,535793.0,917.579,-952.619,-6.664
535885,4,31625,86,-8.585,-4.859,-10.247,55.144,26.863,-16.267,0.27,0.16,0.39,-267.0,17.741,90766.125,918.399,-298262.93,0.4,1.703,535879.0,-10.391,535879.0,918.1,-1007.924,-6.654
535965,4,31705,80,-8.671,-4.881,-10.326,55.42,27.769,-17.290,0.24,0.18,0.31,-299.0,17.746,90764.828,918.797,-299087.968,0.2,2.266,535959.0,-10.255,535959.0,917.791,-994.882,-6.706
536045,4,31785,80,-8.635,-4.902,-10.133,54.793,27.448,-16.837,0.24,0.18,0.30,-299.0,17.751,90763.804,917.977,-299909.531,0.6,1.649,536039.0,-10.283,536039.0,918.330,-1009.54,-6.580
536148,4,31888,103,-8.585,-4.838,-10.168,54.340,27.462,-16.749,0.26,0.21,0.37,-299.0,17.732,90762.781,918.350,-300958.468,0.1,1.842,536141.0,-10.283,536141.0,918.516,-1004.628,-6.603
536227,4,31967,79,-8.599,-4.823,-10.197,54.764,27.141,-16.676,0.25,0.22,0.34,-299.0,17.737,90769.734,918.281,-301778.593,0.12,26.842,536221.0,-10.219,536221.0,917.555,-884.780,-6.622
536308,4,32048,81,-8.628,-4.780,-10.326,55.27,27.725,-16.881,0.25,0.17,0.35,-299.0,17.751,90769.460,919.125,-302606.62,0.2,1.809,536302.0,-10.211,536302.0,917.791,-1005.216,-6.706
536388,4,32128,80,-8.563,-4.902,-10.219,54.501,27.375,-17.816,0.24,0.21,0.34,-267.0,17.746,90763.804,918.797,-303423.312,0.7,1.612,536382.0,-10.219,536382.0,918.424,-1010.284,-6.636
536468,4,32208,80,-8.578,-4.867,-10.326,54.633,27.170,-17.787,0.26,0.22,0.39,-299.0,17.746,90765.859,918.95,-304242.562,0.9,4.650,536462.0,-10.262,536462.0,917.697,-962.608,-6.706
536547,4,32287,79,-8.614,-4.981,-10.276,54.209,27.871,-17.757,0.26,0.18,0.35,-299.0,17.746,90767.414,918.188,-305052.718,0.0,2.0,536541.0,-10.247,536541.0,917.697,-1000.182,-6.673
536655,4,32395,108,-8.614,-4.874,-10.211,54.501,27.375,-16.881,0.26,0.15,0.36,-299.0,17.727,90765.625,918.444,-306156.781,0.5,1.612,536649.0,-10.197,536649.0,918.330,-1010.716,-6.631
536735,4,32475,80,-8.528,-4.981,-10.183,54.823,27.258,-16.588,0.24,0.16,0.36,-267.0,17.727,90771.23,918.890,-306976.906,0.3,1.781,536729.0,-10.305,536729.0,918.609,-1006.125,-6.613
536814,4,32554,79,-8.571,-4.859,-10.204,55.466,27.243,-17.41,0.27,0.20,0.37,-299.0,17.746,90772.804,918.188,-307794.437,0.13,-32.300,536808.0,-10.391,536808.0,917.579,-875.443,-6.627
536894,4,32634,80,-8.542,-4.845,-10.190,55.685,27.272,-16.924,0.25,0.18,0.36,-267.0,17.746,90768.437,918.821,-308620.312,0.14,1.465,536888.0,-10.255,536888.0,918.727,-1014.851,-6.617
536974,4,32714,80,-8.614,-4.895,-10.190,55.290,27.243,-16.676,0.27,0.21,0.35,-267.0,17.741,90774.101,918.281,-309440.156,0.6,3.59,536968.0,-10.240,536968.0,918.213,-981.425,-6.617
537060,4,32800,86,-8.556,-4.795,-10.154,54.793,27.652,-17.12,0.25,0.18,0.33,-267.0,17.751,90763.804,918.914,-310321.468,0.3,1.766,537054.0,-10.255,537054.0,918.516,-1006.248,-6.594
537152,4,32892,92,-8.599,-4.938,-10.255,54.764,27.301,-16.910,0.27,0.21,0.36,-299.0,17.737,90766.125,918.914,-311256.0,0.4,2.659,537145.0,-10.283,537145.0,918.119,-987.503,-6.659
537231,4,32971,79,-8.520,-4.902,-10.290,55.466,28.47,-16.968,0.25,0.23,0.37,-267.0,17.741,90773.335,918.703,-312074.93,0.11,1.523,537225.0,-10.168,537225.0,919.31,-1012.842,-6.682
537316,4,33056,85,-8.714,-4.673,-10.233,54.560,27.550,-16.734,0.25,0.23,0.37,-299.0,17.737,90770.757,918.399,-312941.500,0.8,4.644,537310.0,-10.240,537310.0,918.305,-962.605,-6.645
537396,4,33136,80,-8.599,-4.902,-10.290,54.384,27.214,-16.837,0.26,0.21,0.37,-299.0,17.741,90773.70,917.884,-313763.906,0.2,2.229,537390.0,-10.319,537390.0,918.119,-994.999,-6.682
537482,4,33222,86,-8.528,-4.974,-10.298,54.501,27.287,-17.12,0.25,0.23,0.37,-267.0,17.732,90763.804,918.281,-314646.781,0.1,2.133,537476.0,-10.211,537476.0,918.1,-997.304,-6.687
537562,4,33302,80,-8.542,-4.881,-10.154,54.589,27.491,-16.997,0.24,0.21,0.36,-299.0,17.741,90767.414,918.492,-315462.875,0.2,1.825,537556.0,-10.190,537556.0,918.213,-1004.680,-6.594
537652,4,33392,90,-8.592,-4.981,-10.240,54.48,27.287,-16.968,0.27,0.17,0.37,-267.0,17.732,90768.703,918.586,-316384.531,0.6,3.557,537646.0,-10.290,537646.0,917.604,-974.560,-6.650
537731,4,33471,79,-8.621,-4.938,-10.269,55.320,27.740,-16.866,0.30,0.17,0.36,-267.0,17.741,90769.734,918.188,-317196.93,0.10,1.549,537725.0,-10.255,537725.0,918.424,-1012.803,-6.668
537811,4,33551,80,-8.535,-4.917,-10.233,55.100,27.301,-17.71,0.26,0.18,0.38,-267.0,17.741,90765.859,918.95,-318012.781,0.7,1.612,537805.0,-10.161,537805.0,919.56,-1010.485,-6.645
537891,4,33631,80,-8.549,-4.752,-10.219,55.349,27.828,-16.968,0.21,0.23,0.33,-267.0,17.751,90774.101,918.95,-318827.437,0.13,-17.429,537885.0,-10.204,537885.0,918.1,-904.463,-6.636
537971,4,33711,80,-8.549,-4.917,-10.190,55.700,27.594,-17.187,0.27,0.21,0.38,-267.0,17.746,90770.757,918.95,-319647.843,0.6,1.649,537965.0,-10.305,537965.0,918.541,-1009.777,-6.617
538051,4,33791,80,-8.528,-4.902,-10.240,55.71,27.506,-17.641,0.26,0.17,0.36,-267.0,17.737,90768.437,918.609,-320471.406,0.7,3.722,538045.0,-10.283,538045.0,917.908,-973.146,-6.650
538131,4,33871,80,-8.499,-4.874,-10.283,55.349,27.828,-17.304,0.25,0.17,0.38,-267.0,17.746,90771.781,918.399,-321293.250,0.1,1.894,538125.0,-10.262,538125.0,918.26,-1002.634,-6.678
538245,4,33985,114,-8.678,-4.881,-10.276,55.378,27.565,-17.129,0.25,0.15,0.35,-267.0,17.727,90763.312,917.928,-322445.187,0.1,2.165,538238.0,-10.125,538238.0,917.884,-996.548,-6.673
538324,4,34064,79,-8.721,-4.960,-10.290,55.71,27.652,-17.27,0.26,0.22,0.38,-267.0,17.727,90764.70,918.561,-323257.281,0.0,1.935,538318.0,-10.176,538318.0,917.953,-1001.911,-6.682
538404,4,34144,80,-8.671,-4.938,-10.183,54.253,27.389,-16.749,0.23,0.23,0.34,-299.0,17.746,90767.679,918.492,-324076.812,0.0,2.47,538398.0,-10.312,538398.0,917.908,-999.269,-6.613
538488,4,34228,84,-8.549,-4.996,-10.168,54.983,27.316,-16.778,0.26,0.17,0.35,-267.0,17.737,90769.734,918.492,-324941.843,0.2,1.842,538482.0,-10.283,538482.0,918.95,-1004.298,-6.603
538568,4,34308,80,-8.578,-4.902,-10.197,55.188,27.316,-16.837,0.26,0.18,0.32,-299.0,17.741,90766.125,918.679,-325762.812,0.2,1.826,538562.0,-10.240,538562.0,918.305,-1004.70,-6.622
538648,4,34388,80,-8.535,-4.967,-10.255,54.516,27.53,-16.720,0.24,0.20,0.41,-267.0,17.746,90772.46,918.281,-326582.62,0.9,4.650,538642.0,-10.240,538642.0,917.579,-962.861,-6.659
538745,4,34485,97,-8.671,-4.938,-10.298,55.261,27.842,-16.749,0.25,0.21,0.37,-267.0,17.732,90768.703,918.468,-327575.750,0.10,1.492,538739.0,-10.247,538739.0,918.609,-1014.71,-6.687
538825,4,34565,80,-8.621,-4.924,-10.290,54.676,27.375,-16.427,0.22,0.15,0.34,-299.0,17.741,90770.757,918.399,-328395.875,0.0,2.0,538819.0,-10.255,538819.0,918.609,-1000.312,-6.682
538905,4,34645,80,-8.678,-4.938,-10.369,55.553,27.477,-16.997,0.21,0.16,0.37,-299.0,17.741,90767.414,918.797,-329213.968,0.12,26.520,538899.0,-10.197,538899.0,917.649,-885.254,-6.734
538990,4,34730,85,-8.592,-5.3,-10.298,55.217,27.565,-16.354,0.24,0.20,0.34,-299.0,17.732,90772.46,918.164,-330081.375,0.4,1.739,538984.0,-10.211,538984.0,918.1,-1007.524,-6.687
539070,4,34810,80,-8.528,-4.881,-10.211,55.13,27.316,-17.275,0.23,0.21,0.34,-267.0,17.737,90769.734,918.516,-330902.656,0.0,2.0,539064.0,-10.319,539064.0,918.1,-1000.601,-6.631
539150,4,34890,80,-8.571,-4.845,-10.262,54.223,27.199,-17.889,0.25,0.19,0.34,-267.0,17.741,90774.101,918.95,-331728.218,0.2,1.825,539144.0,-10.319,539144.0,918.213,-1004.291,-6.664
539240,4,34980,90,-8.606,-4.795,-10.240,55.334,27.667,-16.778,0.26,0.16,0.33,-299.0,17.732,90768.703,918.890,-332658.281,0.2,1.825,539234.0,-10.348,539234.0,918.424,-1004.283,-6.650
539321,4,35061,81,-8.578,-4.859,-10.190,55.597,27.243,-16.997,0.24,0.19,0.34,-267.0,17.737,90768.437,918.797,-333480.968,0.4,2.489,539314.0,-10.219,539314.0,918.95,-991.98,-6.617
539399,4,35139,78,-8.621,-4.967,-10.233,55.437,26.995,-16.924,0.29,0.18,0.34,-267.0,17.746,90767.414,918.727,-334289.125,0.2,1.809,539393.0,-10.240,539393.0,918.330,-1004.989,-6.645
539479,4,35219,80,-8.592,-4.996,-10.269,55.860,27.228,-17.348,0.24,0.14,0.37,-299.0,17.751,90768.703,918.399,-335107.218,0.5,2.804,539473.0,-10.211,539473.0,917.884,-985.554,-6.668
539559,4,35299,80,-8.535,-4.931,-10.219,55.451,27.301,-17.904,0.28,0.16,0.35,-299.0,17.741,90770.757,918.188,-335929.625,0.1,2.102,539553.0,-10.348,539553.0,917.791,-998.379,-6.636
539639,4,35379,80,-8.585,-4.953,-10.168,54.779,27.24,-17.611,0.22,0.18,0.35,-267.0,17.741,90763.804,918.821,-336750.906,0.6,1.649,539633.0,-10.183,539633.0,918.330,-1008.827,-6.603
539719,4,35459,80,-8.628,-4.831,-10.161,54.618,27.448,-18.605,0.25,0.20,0.38,-299.0,17.737,90763.804,919.31,-337570.437,0.4,2.488,539713.0,-10.305,539713.0,918.1,-990.901,-6.599
539809,4,35549,90,-8.477,-4.931,-10.283,55.802,27.243,-17.217,0.24,0.17,0.33,-299.0,17.727,90776.679,918.46,-338495.968,0.1,1.894,539803.0,-10.262,539803.0,918.119,-1003.159,-6.678
539894,4,35634,85,-8.642,-4.931,-10.298,55.363,27.375,-17.451,0.26,0.20,0.40,-267.0,17.732,90768.703,918.164,-339365.812,0.0,2.50,539888.0,-10.204,539888.0,918.71,-999.580,-6.687
539974,4,35714,80,-8.642,-4.895,-10.125,55.363,27.565,-17.509,0.24,0.17,0.37,-267.0,17.732,90759.437,917.953,-340183.343,0.1,2.103,539968.0,-10.233,539968.0,917.977,-998.138,-6.575
540054,4,35794,80,-8.621,-4.874,-10.255,55.217,27.185,-17.933,0.27,0.18,0.37,-299.0,17.737,90771.23,918.703,-341004.625,0.4,2.659,540048.0,-10.298,540048.0,917.579,-987.617,-6.659
540141,4,35881,87,-8.599,-4.989,-10.255,55.802,27.404,-17.553,0.26,0.19,0.36,-299.0,17.741,90766.390,918.797,-341903.375,0.3,1.766,540135.0,-10.362,540135.0,917.884,-1006.74,-6.659
540221,4,35961,80,-8.635,-4.931,-10.290,54.355,27.228,-17.743,0.23,0.25,0.36,-299.0,17.737,90770.757,918.703,-342726.375,0.11,1.516,540215.0,-10.211,540215.0,918.821,-1013.55,-6.682
540328,4,36068,107,-8.664,-4.953,-10.262,55.159,27.711,-18.576,0.24,0.20,0.33,-267.0,17.718,90774.898,917.811,-343811.500,0.5,3.554,540321.0,-10.262,540321.0,918.213,-974.351,-6.664
540413,4,36153,85,-8.671,-4.931,-10.240,54.940,27.448,-17.684,0.24,0.20,0.32,-267.0,17.723,90770.0,918.773,-344694.62,0.0,2.50,540407.0,-10.262,540407.0,918.164,-999.906,-6.650
540493,4,36233,80,-8.664,-4.967,-10.305,55.100,27.418,-17.597,0.25,0.16,0.35,-267.0,17.732,90766.390,918.468,-345513.906,0.5,1.691,540487.0,-10.233,540487.0,918.609,-1008.334,-6.692
