millis(),Current_state,Calculated_flight_time,Time_since_last_log,IMU_accel_X,IMU_accel_Y,IMU_accel_Z,IMU_mag_X,IMU_mag_Y,IMU_mag_Z,IMU_gyro_X,IMU_gyro_Y,IMU_gyro_Z,IMU_temp,Raw_IMU_accel_X,Raw_IMU_accel_Y,Raw_IMU_accel_Z,Raw_IMU_mag_X,Raw_IMU_mag_Y,Raw_IMU_mag_Z,Raw_IMU_gyro_X,Raw_IMU_gyro_Y,Raw_IMU_gyro_Z,Raw_IMU_temp,BARO_temp,BARO_press,BARO_alt,Raw_BARO_temp,Raw_BARO_press,Raw_BARO_alt,Velocity_lastUpdate,Velocity_lastZAccel,Velocity_lastAlt,Velocity_inte,Velocity_diff,Velocity_est,Est_apogee,Target_air_brake_angle,Air_brake_angle,Battery_voltage,Z_accel_times_burnoutMass
4299,2,4299,4299,-9.321,0.526,-8.286,79.114,-15.548,39.845,0.66,0.34,0.146,-811.0,-9.367,0.366,-8.223,78.573,-15.843,40.207,0.14,0.44,0.46,-811.0,2.346,90639.453,930.446,2.366,90642.62,930.913,4299,-8.286,930.913,0.0,0.0,0.0,0.0,0.0,0.0,3.950,-4.971
4348,2,4348,49,-9.329,0.459,-8.158,78.693,-15.618,40.172,0.12,0.54,0.81,-811.0,-9.267,0.373,-7.993,78.266,-15.375,40.295,0.7,0.61,0.18,-811.0,2.354,90640.742,930.550,2.357,90643.85,930.318,4348,-8.158,930.318,-402919.218,-12.152,2.573,0.0,0.0,0.0,3.957,-4.894
4389,2,4389,41,-9.359,0.376,-8.153,78.453,-15.670,40.239,0.5,0.62,0.48,-811.0,-9.425,0.337,-8.230,77.901,-15.741,40.163,0.0,0.31,0.17,-811.0,2.360,90640.484,930.372,2.376,90634.148,930.17,4389,-8.153,930.17,-737318.562,-7.342,2.282,0.0,0.0,0.0,3.957,-4.891
4425,2,4425,36,-9.442,0.397,-8.179,78.325,-15.679,40.166,0.1,0.28,0.7,-811.0,-9.712,0.531,-8.237,78.310,-15.843,39.915,0.9,0.76,0.25,-811.0,2.366,90640.640,930.376,2.376,90640.695,930.328,4425,-8.179,930.328,-1031299.250,8.638,1.794,0.0,0.0,0.0,3.963,-4.906
4469,2,4469,44,-9.435,0.379,-8.167,78.152,-15.688,40.157,0.0,0.39,0.4,-811.0,-9.403,0.287,-8.151,77.711,-15.638,40.207,0.9,0.14,0.6,-811.0,2.373,90640.570,930.361,2.389,90642.851,930.229,4469,-8.167,930.229,-1390924.875,-2.238,2.72,0.0,0.0,0.0,3.963,-4.899
4505,2,4505,36,-9.455,0.373,-8.154,77.977,-15.618,40.190,0.5,0.36,0.3,-811.0,-9.468,0.337,-8.158,77.696,-15.492,40.368,0.18,0.28,0.49,-811.0,2.379,90640.734,930.326,2.399,90642.851,930.738,4505,-8.154,930.738,-1684724.750,14.124,1.702,0.0,0.0,0.0,3.963,-4.891
4547,2,4547,42,-9.499,0.347,-8.179,77.857,-15.685,40.239,0.8,0.19,0.3,-811.0,-9.489,0.244,-8.115,77.667,-15.711,40.543,0.5,0.26,0.15,-811.0,2.389,90640.234,930.270,2.403,90640.632,930.38,4547,-8.179,930.38,-2027732.375,-16.666,3.0,0.0,0.0,0.0,3.963,-4.906
4583,2,4583,36,-9.561,0.356,-8.92,77.904,-15.708,40.277,0.12,0.15,0.14,-811.0,-9.734,0.380,-7.800,78.135,-15.857,40.353,0.21,0.13,0.36,-811.0,2.394,90642.171,930.193,2.403,90643.875,929.634,4583,-8.92,929.634,-2320627.750,-11.220,2.507,0.0,0.0,0.0,3.963,-4.854
4626,2,4626,43,-9.528,0.366,-8.91,77.810,-15.770,40.286,0.31,0.5,0.38,-811.0,-9.547,0.581,-8.230,77.842,-16.150,39.959,0.104,0.25,0.94,-811.0,2.400,90641.937,930.195,2.403,90639.500,930.338,4626,-8.91,930.338,-2668592.0,16.381,1.670,0.0,0.0,0.0,3.963,-4.854
4662,2,4662,36,-9.601,0.376,-8.57,77.924,-15.960,40.286,0.37,0.54,0.141,-811.0,-9.769,0.337,-7.979,78.281,-16.588,40.207,0.37,0.280,0.512,-811.0,2.404,90641.257,930.157,2.412,90639.437,930.38,4662,-8.57,930.38,-2959265.0,-8.346,2.334,0.0,0.0,0.0,3.963,-4.833
4704,2,4704,42,-9.700,0.381,-7.807,77.901,-16.372,40.198,0.21,0.15,0.211,-811.0,-9.963,0.366,-6.909,77.579,-17.553,39.929,0.60,0.165,0.397,-811.0,2.408,90639.476,930.57,2.417,90633.921,930.240,4704,-7.807,930.240,-3292413.750,4.821,1.873,0.0,0.0,0.0,3.957,-4.683
4740,2,4740,36,-9.551,0.274,-7.670,77.801,-16.904,39.982,0.66,0.9,0.241,-811.0,-8.743,0.294,-7.433,77.170,-18.371,39.462,0.229,0.151,0.165,-811.0,2.411,90639.453,930.38,2.417,90640.523,929.939,4740,-7.670,929.939,-3571018.250,-8.377,2.335,0.0,0.0,0.0,3.963,-4.601
4783,2,4783,43,-9.248,0.70,-7.802,77.497,-17.594,39.587,0.244,0.79,0.249,-811.0,-8.219,0.638,-8.460,76.615,-19.307,38.380,0.908,0.457,0.77,-811.0,2.413,90637.671,930.179,2.417,90635.0,930.343,4783,-7.802,930.343,-3903703.250,9.406,1.779,0.0,0.0,0.0,3.963,-4.680
4819,2,4819,36,-8.994,0.71,-8.18,77.307,-18.477,39.298,0.391,0.145,0.208,-811.0,-8.276,0.129,-9.307,76.892,-20.564,38.512,0.842,0.307,0.107,-811.0,2.416,90637.0,930.161,2.417,90636.85,930.245,4819,-8.18,930.245,-4188484.0,-2.721,2.88,0.0,0.0,0.0,3.963,-4.810
4889,2,4889,70,-8.606,0.209,-7.912,76.769,-19.543,38.938,0.452,0.89,0.58,-811.0,-7.831,0.351,-7.448,75.591,-21.923,38.409,0.341,0.0,0.240,-811.0,2.419,90636.351,930.201,2.426,90636.195,930.240,4889,-7.912,930.240,-4746043.500,0.70,2.2,0.0,0.0,0.0,3.963,-4.746
4925,2,4925,36,-8.621,0.347,-8.121,76.454,-20.192,38.617,0.462,0.165,0.143,-811.0,-10.35,0.323,-7.957,76.1,-20.798,38.322,0.10,0.216,0.612,-811.0,2.417,90637.7,930.223,2.408,90637.218,930.348,4925,-8.121,930.348,-5034649.0,3.11,1.917,0.0,0.0,0.0,3.963,-4.872
4967,2,4967,42,-8.724,0.367,-7.966,76.305,-20.336,38.380,0.479,0.158,0.299,-811.0,-9.260,0.394,-6.658,76.425,-19.87,38.278,0.314,0.186,0.615,-811.0,2.418,90637.210,930.285,2.422,90641.546,930.249,4967,-7.966,930.249,-5372501.0,-2.358,2.76,0.0,0.0,0.0,3.963,-4.779
5003,2,5003,36,-9.250,0.424,-7.814,76.349,-20.140,38.254,0.344,0.20,0.420,-811.0,-10.846,0.926,-7.699,76.834,-18.327,37.752,0.231,0.237,0.526,-811.0,2.422,90639.390,930.228,2.435,90645.921,930.59,5003,-7.814,930.59,-5656558.0,-5.303,2.189,0.0,0.0,0.0,3.963,-4.687
5046,2,5046,43,-9.939,0.430,-7.702,76.413,-19.602,37.988,0.180,0.57,0.435,-811.0,-11.722,0.157,-8.747,77.214,-17.874,37.182,0.26,0.495,0.183,-811.0,2.428,90640.31,930.251,2.449,90639.265,930.359,5046,-7.702,930.359,-5990169.0,6.999,1.826,0.0,0.0,0.0,3.963,-4.620
5082,2,5082,36,-10.601,0.351,-7.472,76.615,-18.830,38.53,0.57,0.307,0.342,-811.0,-11.140,0.43,-6.299,76.600,-18.64,38.731,0.275,1.248,0.225,-811.0,2.434,90640.421,930.357,2.454,90638.125,930.769,5082,-7.472,930.769,-6263320.500,11.374,1.745,0.0,0.0,0.0,3.963,-4.482
5124,2,5124,42,-10.878,0.252,-7.50,76.533,-18.333,38.523,0.49,0.323,0.240,-811.0,-11.420,0.172,-5.847,75.591,-18.313,40.675,0.544,0.296,0.100,-811.0,2.443,90640.578,930.261,2.454,90638.15,929.867,5124,-7.50,929.867,-6568309.500,-21.475,3.811,0.0,0.0,0.0,3.963,-4.229
5160,2,5160,36,-10.998,0.78,-7.86,76.343,-18.406,39.61,0.131,0.407,0.33,-811.0,-9.863,0.473,-6.838,75.475,-19.453,40.967,0.94,0.232,0.751,-811.0,2.451,90639.210,930.205,2.463,90634.710,929.971,5160,-7.86,929.971,-6822777.0,2.888,1.920,0.0,0.0,0.0,3.963,-4.251
5203,2,5203,43,-10.571,0.180,-7.53,76.68,-19.137,39.719,0.144,0.372,0.255,-811.0,-8.707,0.373,-7.534,75.460,-21.981,41.40,0.164,0.410,0.586,-811.0,2.459,90638.46,930.248,2.477,90640.171,930.271,5203,-7.53,930.271,-7126786.0,6.987,1.826,0.0,0.0,0.0,3.963,-4.231
5239,2,5239,36,-10.77,0.208,-7.16,75.542,-20.482,40.295,0.112,0.339,0.409,-811.0,-9.253,0.21,-8.560,74.583,-24.598,40.61,0.189,0.327,0.586,-811.0,2.464,90638.453,930.171,2.472,90641.250,929.976,5239,-7.16,929.976,-7380039.0,-8.209,2.326,0.0,0.0,0.0,3.963,-4.208
5281,2,5281,42,-9.672,0.228,-7.462,74.934,-22.52,40.567,0.82,0.120,0.473,-811.0,-9.116,0.143,-8.532,73.560,-25.913,40.90,0.125,0.153,0.543,-811.0,2.469,90637.539,930.134,2.477,90633.515,930.582,5281,-7.462,930.582,-7684093.500,14.439,1.697,0.0,0.0,0.0,3.963,-4.476
5317,2,5317,36,-9.201,0.147,-7.896,74.492,-23.855,40.496,0.37,0.29,0.566,-811.0,-9.66,0.229,-8.15,73.384,-27.331,40.324,0.321,0.154,0.364,-811.0,2.474,90637.507,930.237,2.482,90637.898,930.386,5317,-7.896,930.386,-7960553.0,-5.457,2.195,0.0,0.0,0.0,3.963,-4.736
5361,2,5361,44,-8.938,0.24,-8.212,73.940,-25.501,40.339,0.96,0.49,0.482,-811.0,-8.549,0.387,-8.417,72.712,-27.681,40.178,0.391,0.163,0.330,-811.0,2.479,90638.578,930.58,2.486,90640.54,929.74,5361,-8.212,929.74,-8314935.500,-29.814,10.472,0.0,0.0,0.0,3.970,-4.926
5412,2,5412,51,-8.924,0.176,-8.276,73.583,-26.635,40.374,0.268,0.33,0.383,-811.0,-8.635,0.387,-7.857,73.677,-27.652,41.216,0.694,0.6,0.91,-811.0,2.481,90638.796,930.81,2.486,90641.250,930.386,5412,-8.276,930.386,-8735399.0,25.722,1.564,0.0,0.0,0.0,3.976,-4.965
5457,2,5457,45,-8.792,0.219,-8.31,73.314,-27.59,40.874,0.398,0.20,0.292,-811.0,-8.592,0.236,-7.333,73.238,-26.717,42.560,0.458,0.258,0.133,-811.0,2.485,90638.789,930.203,2.495,90641.195,930.588,5457,-8.31,930.588,-9102326.0,4.488,1.881,0.0,0.0,0.0,3.976,-4.817
5494,2,5494,37,-8.770,0.318,-7.841,73.142,-27.82,41.628,0.498,0.43,0.179,-811.0,-9.8,0.351,-7.584,72.698,-26.30,43.861,0.627,0.163,0.23,-811.0,2.488,90639.421,930.185,2.491,90636.695,930.490,5494,-7.841,930.490,-9395974.0,-2.647,2.86,0.0,0.0,0.0,3.976,-4.704
5537,2,5537,43,-8.776,0.312,-7.530,73.86,-26.603,42.513,0.470,0.15,0.123,-811.0,-9.95,0.200,-6.457,73.107,-24.934,44.752,0.182,0.137,0.87,-811.0,2.492,90639.625,930.4,2.500,90638.921,929.484,5537,-7.530,929.484,-9726467.0,-23.393,4.353,0.0,0.0,0.0,3.976,-4.517
5573,2,5573,36,-9.19,0.340,-7.372,73.60,-26.94,43.534,0.398,0.95,0.69,-811.0,-9.762,0.524,-7.627,72.581,-25.138,45.279,0.29,0.240,0.58,-811.0,2.494,90640.500,930.329,2.500,90644.437,930.697,5573,-7.372,930.697,-9994709.0,33.691,1.497,0.0,0.0,0.0,3.976,-4.422
5616,2,5616,43,-9.112,0.393,-7.518,72.934,-25.475,44.530,0.376,0.65,0.80,-811.0,-9.102,0.653,-8.589,73.48,-24.554,46.199,0.585,0.144,0.146,-811.0,2.499,90640.906,930.311,2.509,90643.296,930.297,5616,-7.518,930.297,-10314862.0,-9.291,2.386,0.0,0.0,0.0,3.976,-4.510
5652,2,5652,36,-9.854,-1.523,-8.247,72.914,-24.872,45.404,0.427,0.113,0.132,-811.0,-12.303,-9.346,-10.980,73.136,-23.706,46.930,0.712,0.497,0.392,-811.0,2.502,90641.312,930.274,2.509,90643.242,930.401,5652,-8.247,930.401,-10598661.0,2.888,1.920,0.0,0.0,0.0,3.983,-4.947
5695,2,5695,43,-9.767,-1.330,-8.496,72.817,-23.902,46.518,0.619,0.245,0.44,-811.0,-8.571,1.313,-8.826,72.215,-21.178,49.429,1.588,0.494,0.463,-811.0,2.508,90641.515,930.216,2.523,90637.664,930.199,5695,-8.496,930.199,-10958664.0,-4.696,2.164,0.0,0.0,0.0,3.976,-5.96
5731,2,5731,36,-9.280,-1.379,-8.984,72.449,-22.265,48.167,1.181,0.445,0.5,-811.0,-6.661,0.43,-8.898,71.265,-16.749,52.996,2.990,1.136,0.105,-811.0,2.512,90641.265,930.339,2.518,90637.664,930.101,5731,-8.984,930.101,-11273319.0,-2.721,2.88,0.0,0.0,0.0,3.983,-5.389
5773,2,5773,42,-9.586,-1.748,-9.662,72.142,-18.880,50.482,1.863,0.521,0.228,-811.0,-11.291,-1.320,-11.15,71.46,-8.213,56.854,3.438,0.621,1.111,-811.0,2.516,90639.460,930.180,2.518,90635.445,929.899,5773,-9.662,929.899,-11664898.0,-4.821,2.169,0.0,0.0,0.0,3.976,-5.796
5815,2,5815,42,-8.997,-2.513,-8.540,70.722,-12.946,53.817,2.394,1.12,0.600,-811.0,-6.159,-3.172,-2.983,65.945,5.115,62.876,3.240,2.312,1.714,-811.0,2.518,90638.117,930.182,2.523,90636.578,930.308,5815,-8.540,930.308,-12047160.0,9.735,1.773,0.0,0.0,0.0,3.976,-5.123
5851,2,5851,36,-8.687,0.999,-7.830,69.225,-5.735,57.339,2.876,0.702,0.752,-811.0,-10.753,-1.773,-7.426,65.653,12.350,64.542,3.123,-1.55,0.365,-811.0,2.520,90637.656,930.142,2.518,90640.960,930.205,5851,-7.830,930.205,-12341838.0,-2.858,2.93,0.0,0.0,0.0,3.976,-4.697
5893,2,5893,42,-8.734,-2.58,-7.281,68.152,2.627,59.874,2.953,0.557,0.700,-811.0,-8.807,-3.984,-6.84,66.851,20.637,62.101,1.973,0.229,0.204,-811.0,2.520,90637.656,930.82,2.523,90637.664,929.899,5893,-7.281,929.899,-12659188.0,-7.284,2.279,0.0,0.0,0.0,3.983,-4.368
5957,2,5957,64,-9.118,-2.927,-6.493,66.921,11.943,60.993,2.556,0.607,0.839,-811.0,-8.578,-4.386,-4.957,65.112,29.830,58.593,1.6,1.390,0.801,-811.0,2.521,90637.0,930.122,2.523,90634.359,930.297,5957,-6.493,930.297,-13099997.0,6.225,1.842,0.0,0.0,0.0,3.976,-3.895
5998,2,5998,41,-9.568,-4.891,-5.363,65.308,20.64,61.265,1.892,0.435,0.487,-811.0,-13.545,-11.140,-5.366,62.978,32.388,58.213,0.118,0.242,0.646,-811.0,2.519,90637.687,930.262,2.509,90638.859,930.599,5998,-5.363,930.599,-13343070.0,7.355,1.819,0.0,0.0,0.0,3.976,-3.217
6034,2,6034,36,-10.266,-5.223,-5.471,65.156,25.802,59.693,1.474,0.467,0.123,-811.0,-9.647,-4.831,-3.521,65.185,33.805,55.13,1.147,-2.198,0.106,-811.0,2.517,90639.15,930.321,2.514,90643.242,930.604,6034,-5.471,930.604,-13538100.0,0.137,1.995,0.0,0.0,0.0,3.976,-3.282
6077,2,6077,43,-9.764,-5.672,-5.264,65.814,30.116,57.255,0.489,0.482,0.119,-811.0,-8.240,-4.19,-6.393,68.941,33.922,52.353,-1.796,-1.130,0.343,-811.0,2.517,90638.804,930.260,2.514,90639.882,929.899,6077,-5.264,929.899,-13768922.0,-16.394,2.967,0.0,0.0,0.0,3.976,-3.158
6113,2,6113,36,-9.630,-5.794,-5.780,66.351,32.385,55.647,0.194,0.316,0.36,-811.0,-8.140,-4.594,-8.661,69.541,31.978,54.63,0.496,0.598,0.209,-811.0,2.518,90638.789,930.362,2.532,90637.601,930.412,6113,-5.780,930.412,-13967725.0,14.246,1.700,0.0,0.0,0.0,3.983,-3.467
6156,2,6156,43,-8.662,-5.857,-6.34,67.3,33.89,54.519,0.119,0.331,0.141,-811.0,-3.739,-4.701,-6.227,68.371,33.352,52.952,0.631,1.314,0.89,-811.0,2.521,90637.890,930.283,2.537,90629.867,929.904,6156,-6.34,929.904,-14221729.0,-11.812,2.548,0.0,0.0,0.0,3.989,-3.619
6192,2,6192,36,-6.999,-4.246,-6.153,67.433,33.51,54.185,0.389,0.284,0.83,-811.0,-5.225,-3.86,-5.962,65.127,32.198,56.547,-2.426,2.840,0.356,-811.0,2.528,90637.625,930.186,2.541,90637.546,930.112,6192,-6.153,930.112,-14441102.0,5.777,1.852,0.0,0.0,0.0,3.983,-3.691
6235,2,6235,43,-6.965,-3.979,-6.642,66.670,32.212,55.343,0.873,0.784,0.34,-811.0,-9.482,-3.495,-5.969,61.370,29.611,60.800,-1.273,0.298,0.137,-811.0,2.534,90637.359,930.47,2.546,90641.921,929.910,6235,-6.642,929.910,-14716219.0,-4.696,2.164,0.0,0.0,0.0,3.976,-3.985
6271,2,6271,36,-6.576,-4.83,-5.933,65.328,31.397,56.872,0.262,1.3,0.66,-811.0,-6.295,-4.536,-2.846,62.233,29.845,59.997,1.259,0.35,0.184,-811.0,2.540,90637.554,930.172,2.546,90640.843,930.522,6271,-5.933,930.522,-14942596.0,16.998,1.662,0.0,0.0,0.0,3.976,-3.559
6313,2,6313,42,-6.848,-4.608,-5.390,63.624,31.517,57.813,0.174,1.333,0.121,-811.0,-9.497,-7.221,-5.947,61.20,32.578,58.769,0.937,2.251,0.481,-811.0,2.544,90638.648,930.152,2.551,90643.62,930.314,6313,-5.390,930.314,-15180412.0,-4.939,2.173,0.0,0.0,0.0,3.976,-3.234
6349,2,6349,36,-8.87,-4.80,-4.998,62.5,31.394,58.845,0.182,1.298,0.167,-811.0,-9.934,-2.60,-4.268,60.274,32.738,58.111,0.592,1.135,0.319,-811.0,2.545,90638.851,930.275,2.541,90630.882,930.516,6349,-4.998,930.516,-15367431.0,5.594,1.856,0.0,0.0,0.0,3.983,-2.998
6393,2,6393,44,-8.141,-4.180,-4.592,60.938,31.663,59.38,0.307,0.643,0.86,-811.0,-5.498,-3.589,-3.930,59.792,33.542,57.512,0.20,0.431,0.45,-811.0,2.545,90638.187,930.315,2.541,90634.242,930.314,6393,-4.592,930.314,-15578448.0,-4.577,2.159,0.0,0.0,0.0,3.976,-2.755
6456,2,6456,63,-9.973,-3.682,-5.478,61.613,33.121,56.799,0.738,0.858,0.322,-811.0,-18.642,-1.4,-10.398,64.747,36.904,49.605,0.883,-7.212,-1.39,-811.0,2.546,90638.0,930.334,2.551,90640.960,930.3,6456,-5.478,930.3,-15895691.0,-4.943,2.174,0.0,0.0,0.0,3.970,-3.286
6498,2,6498,42,-9.194,-3.955,-4.449,64.19,33.449,53.154,0.126,-1.0,0.785,-811.0,-2.397,-5.900,2.300,74.261,31.482,41.771,-3.65,0.743,-2.131,-811.0,2.542,90638.15,930.311,2.528,90640.960,930.407,6498,-4.449,930.407,-16104171.0,9.617,1.776,0.0,0.0,0.0,3.970,-2.669
6534,2,6534,36,-8.614,-2.297,-4.927,66.959,32.569,49.640,0.351,-1.614,0.707,-811.0,-6.597,1.69,-8.338,75.723,28.178,41.201,0.186,0.821,0.94,-811.0,2.539,90637.820,930.230,2.532,90642.39,929.910,6534,-4.927,929.910,-16272945.0,-13.804,2.706,0.0,0.0,0.0,3.963,-2.955
6576,2,6576,42,-9.327,-2.243,-5.947,70.584,31.753,45.752,0.251,-2.271,0.663,-811.0,-13.502,-1.794,-9.372,78.398,28.661,38.672,1.93,-2.151,0.98,-811.0,2.540,90639.609,930.169,2.546,90639.820,930.210,6576,-5.947,930.210,-16501324.0,7.154,1.823,0.0,0.0,0.0,3.963,-3.568
6613,2,6613,37,-10.454,-1.925,-7.349,74.469,30.859,41.69,0.362,-2.226,0.686,-811.0,-11.133,-1.995,-10.937,79.216,29.70,34.98,0.539,0.204,0.68,-811.0,2.539,90640.265,930.88,2.537,90637.546,929.910,6613,-7.349,929.910,-16747322.0,-8.120,2.322,0.0,0.0,0.0,3.963,-4.408
6655,2,6655,42,-8.325,-2.42,-7.152,77.369,29.169,38.59,0.657,0.985,0.553,-811.0,-7.996,-1.593,-9.415,79.245,28.456,34.551,0.591,-1.7,0.374,-811.0,2.538,90640.242,930.130,2.546,90640.843,930.210,6655,-7.152,930.210,-17051858.0,7.154,1.823,0.0,0.0,0.0,3.963,-4.290
6691,2,6691,36,-11.221,-2.388,-5.989,78.745,27.933,36.39,0.433,-1.84,0.190,-811.0,-16.876,-7.630,8.114,81.145,25.299,31.672,-1.941,-1.236,0.317,-811.0,2.540,90640.445,929.990,2.541,90641.984,929.707,6691,-5.989,929.707,-17288416.0,-13.971,2.721,0.0,0.0,0.0,3.963,-3.593
6737,2,6737,46,-12.493,-2.439,-6.931,80.8,26.898,33.431,0.407,0.956,0.166,-811.0,-12.957,0.818,-13.47,82.37,23.4,28.164,0.59,0.182,0.25,-811.0,2.543,90640.226,929.969,2.546,90640.906,929.806,6737,-6.931,929.806,-17585600.0,2.141,1.939,0.0,0.0,0.0,3.963,-4.158
6774,2,6774,37,-11.610,-2.390,-7.188,80.771,25.711,31.128,0.625,0.555,0.82,-811.0,-9.87,-1.550,-10.657,82.212,22.727,27.155,0.4,0.145,0.323,-811.0,2.541,90639.976,929.969,2.537,90638.625,930.210,6774,-7.188,930.210,-17846818.0,10.931,1.753,0.0,0.0,0.0,3.963,-4.312
6818,2,6818,44,-11.331,-2.264,-7.214,81.546,24.484,29.760,0.522,0.484,0.90,-811.0,-9.741,-1.363,-11.66,83.89,22.931,27.258,0.22,0.151,0.111,-811.0,2.543,90640.890,929.968,2.546,90642.101,929.904,6818,-7.214,929.904,-18163678.0,-6.966,2.264,0.0,0.0,0.0,3.963,-4.327
6854,2,6854,36,-11.631,-2.156,-7.512,82.277,23.349,28.304,0.407,0.260,0.16,-811.0,-9.497,-1.55,-10.908,82.899,22.785,27.272,0.18,0.109,0.4,-811.0,2.542,90640.234,929.908,2.541,90637.546,929.910,6854,-7.512,929.910,-18428766.0,0.167,1.994,0.0,0.0,0.0,3.963,-4.506
6896,2,6896,42,-10.194,0.903,-11.340,82.508,22.689,27.395,0.20,0.23,0.56,-811.0,-9.690,-1.363,-11.23,82.300,21.996,27.126,0.6,0.47,0.49,-811.0,2.542,90640.7,929.948,2.541,90640.843,929.910,6896,-11.340,929.910,-18824686.0,0.0,2.0,0.0,0.0,0.0,3.963,-6.803
6960,2,6960,64,-9.540,-1.325,-10.926,82.575,22.458,27.106,0.11,0.14,0.54,-811.0,-9.683,-1.292,-10.980,82.373,21.850,26.717,0.12,0.4,0.12,-811.0,2.541,90640.15,930.28,2.541,90640.960,930.205,6960,-10.926,930.205,-19537244.0,4.609,1.878,0.0,0.0,0.0,3.963,-6.555
7001,2,7001,41,-9.657,-1.293,-11.0,82.695,22.338,27.68,0.13,0.46,0.10,-811.0,-9.676,-1.392,-11.23,82.812,22.128,26.965,0.9,0.14,0.0,-811.0,2.539,90639.367,930.46,2.523,90635.382,930.303,7001,-11.0,930.303,-19986750.0,2.389,1.933,0.0,0.0,0.0,3.963,-6.599
7037,2,7037,36,-9.655,-1.276,-10.981,82.546,22.183,27.9,0.11,0.19,0.12,-811.0,-9.726,-1.277,-10.972,82.344,22.157,26.965,0.8,0.15,0.6,-811.0,2.537,90639.351,930.108,2.537,90642.39,930.210,7037,-10.981,930.210,-20382420.0,-2.568,2.83,0.0,0.0,0.0,3.963,-6.587
7080,2,7080,43,-9.679,-1.333,-10.997,82.513,22.209,26.951,0.10,0.0,0.14,-811.0,-9.619,-1.342,-10.987,82.738,22.917,26.980,0.15,0.14,0.5,-811.0,2.536,90639.382,930.167,2.537,90637.664,930.205,7080,-10.997,930.205,-20854966.0,0.127,2.3,0.0,0.0,0.0,3.963,-6.597
7116,2,7116,36,-9.680,-1.300,-10.987,82.730,22.256,26.878,0.11,0.12,0.6,-811.0,-9.698,-1.198,-10.972,83.382,22.230,26.761,0.12,0.14,0.6,-811.0,2.536,90639.164,930.267,2.541,90639.765,930.412,7116,-10.987,930.412,-21250688.0,5.747,1.852,0.0,0.0,0.0,3.963,-6.591
7158,2,7158,42,-9.679,-1.296,-10.978,82.920,22.318,26.878,0.11,0.15,0.4,-811.0,-9.676,-1.270,-10.937,83.323,22.157,26.717,0.11,0.17,0.5,-811.0,2.536,90638.257,930.248,2.541,90636.460,930.112,7158,-10.978,930.112,-21711972.0,-7.141,2.272,0.0,0.0,0.0,3.957,-6.586
7194,2,7194,36,-9.676,-1.276,-10.955,82.981,22.426,26.825,0.12,0.15,0.6,-811.0,-9.662,-1.292,-10.908,83.118,22.668,26.702,0.12,0.16,0.7,-811.0,2.539,90639.812,930.251,2.537,90643.125,930.314,7194,-10.955,930.314,-22106790.0,5.625,1.855,0.0,0.0,0.0,3.963,-6.572
7237,2,7237,43,-9.657,-1.892,-11.148,83.177,22.396,26.872,0.17,0.31,0.20,-811.0,-9.633,-4.357,-11.934,83.323,22.11,27.199,0.33,0.93,0.79,-811.0,2.540,90639.367,930.312,2.541,90639.820,930.516,7237,-11.148,930.516,-22582020.0,4.684,1.876,0.0,0.0,0.0,3.963,-6.687
7278,2,7278,41,-9.679,-1.879,-11.158,83.344,22.221,26.793,0.16,0.27,0.21,-811.0,-9.726,-1.277,-11.37,83.572,22.40,26.585,0.9,0.1,0.7,-811.0,2.540,90638.898,930.253,2.541,90635.328,929.910,7278,-11.158,929.910,-23039296.0,-14.777,2.796,0.0,0.0,0.0,3.963,-6.693
7314,2,7314,36,-9.655,-1.896,-11.160,83.422,22.201,26.828,0.17,0.29,0.20,-811.0,-9.576,-1.284,-10.987,83.776,22.128,26.936,0.17,0.23,0.0,-811.0,2.540,90638.23,930.273,2.537,90635.382,930.511,7314,-11.160,930.511,-23441040.0,16.693,1.666,0.0,0.0,0.0,3.963,-6.695
7357,2,7357,43,-9.655,-1.899,-11.155,83.566,22.180,26.863,0.16,0.28,0.20,-811.0,-9.676,-1.284,-10.908,84.39,22.54,26.892,0.10,0.9,0.5,-811.0,2.539,90638.250,930.393,2.537,90637.601,930.713,7357,-11.155,930.713,-23920840.0,4.709,1.876,0.0,0.0,0.0,3.963,-6.692
7394,2,7394,37,-9.649,-1.916,-11.169,83.536,22.52,26.913,0.16,0.27,0.19,-811.0,-9.633,-1.378,-10.980,82.972,22.25,26.951,0.12,0.13,0.2,-811.0,2.538,90636.484,930.411,2.532,90634.304,930.407,7394,-11.169,930.407,-24333850.0,-8.284,2.330,0.0,0.0,0.0,3.970,-6.700
7437,2,7437,43,-9.655,-1.287,-10.975,83.595,22.54,26.793,0.12,0.13,0.2,-811.0,-9.662,-1.213,-10.965,83.615,22.25,26.600,0.13,0.22,0.0,-811.0,2.535,90636.289,930.288,2.528,90638.804,929.899,7437,-10.975,929.899,-24809976.0,-11.812,2.548,0.0,0.0,0.0,3.970,-6.584
7501,2,7501,64,-9.642,-1.296,-10.968,83.615,22.54,26.860,0.14,0.15,0.2,-811.0,-9.662,-1.320,-11.1,83.674,22.40,26.921,0.17,0.8,0.3,-811.0,2.530,90637.0,930.404,2.518,90638.921,930.490,7501,-10.968,930.490,-25512196.0,9.234,1.783,0.0,0.0,0.0,3.976,-6.580
7542,2,7542,41,-9.667,-1.292,-10.970,83.408,22.28,26.734,0.13,0.14,0.2,-811.0,-9.705,-1.263,-10.994,82.738,21.996,26.308,0.12,0.19,0.0,-811.0,2.523,90637.39,930.278,2.500,90635.562,929.882,7542,-10.970,929.882,-25961938.0,-14.816,2.800,0.0,0.0,0.0,3.976,-6.580
7578,2,7578,36,-9.673,-1.284,-10.972,83.332,22.11,26.714,0.14,0.17,0.2,-811.0,-9.705,-1.249,-10.922,83.659,21.967,26.790,0.15,0.24,0.6,-811.0,2.516,90636.851,930.295,2.500,90636.640,930.795,7578,-10.972,930.795,-26356912.0,25.360,1.567,0.0,0.0,0.0,3.983,-6.582
7621,2,7621,43,-9.678,-1.263,-10.967,83.460,21.946,26.679,0.14,0.17,0.2,-811.0,-9.655,-1.270,-10.951,83.615,21.704,26.775,0.13,0.9,0.3,-811.0,2.510,90637.984,930.271,2.505,90640.0,930.287,7621,-10.967,930.287,-26828624.0,-11.826,2.549,0.0,0.0,0.0,3.983,-6.579
7657,2,7657,36,-9.686,-1.292,-10.962,83.306,21.926,26.629,0.14,0.16,0.3,-811.0,-9.705,-1.356,-10.944,82.841,21.923,26.351,0.14,0.21,0.2,-811.0,2.505,90638.437,930.268,2.500,90641.78,929.888,7657,-10.962,929.888,-27223364.0,-11.81,2.497,0.0,0.0,0.0,3.970,-6.576
7699,2,7699,42,-9.693,-1.286,-10.949,83.253,21.984,26.647,0.14,0.18,0.2,-811.0,-9.698,-1.292,-10.937,83.411,22.332,27.9,0.14,0.19,0.1,-811.0,2.501,90637.984,930.208,2.500,90636.640,930.188,7699,-10.949,930.188,-27683532.0,7.152,1.823,0.0,0.0,0.0,3.976,-6.568
7736,2,7736,37,-9.706,-1.289,-10.947,83.434,21.961,26.699,0.15,0.19,0.2,-811.0,-9.769,-1.277,-10.980,83.645,21.879,26.571,0.17,0.20,0.0,-811.0,2.501,90638.421,930.250,2.500,90637.781,930.90,7736,-10.947,930.90,-28088626.0,-2.645,2.86,0.0,0.0,0.0,3.976,-6.567
7778,2,7778,42,-9.672,-1.292,-10.948,83.414,22.8,26.743,0.13,0.17,0.1,-811.0,-9.533,-1.263,-10.929,83.557,22.201,27.9,0.7,0.18,0.0,-811.0,2.502,90639.101,930.250,2.505,90640.0,930.795,7778,-10.948,930.795,-28548434.0,16.784,1.665,0.0,0.0,0.0,3.976,-6.568
7814,2,7814,36,-9.672,-1.305,-10.942,83.484,22.28,26.758,0.13,0.19,0.0,-811.0,-9.655,-1.335,-10.922,83.966,21.806,26.848,0.10,0.16,0.0,-811.0,2.503,90638.421,930.130,2.509,90636.640,929.687,7814,-10.942,929.687,-28942476.0,-30.802,14.170,0.0,0.0,0.0,3.976,-6.564
7856,2,7856,42,-9.667,-1.272,-10.954,83.683,21.973,26.816,0.12,0.16,0.0,-811.0,-9.683,-1.191,-11.1,83.835,21.645,26.644,0.10,0.9,0.0,-811.0,2.505,90638.664,930.170,2.514,90642.273,930.90,7856,-10.954,930.90,-29402314.0,9.617,1.776,0.0,0.0,0.0,3.976,-6.571
7893,2,7893,37,-9.689,-1.270,-10.962,83.741,21.683,26.746,0.12,0.17,0.0,-811.0,-9.805,-1.284,-10.980,83.703,20.885,26.658,0.12,0.22,0.2,-811.0,2.508,90639.554,930.171,2.514,90641.78,930.194,7893,-10.962,930.194,-29807780.0,2.810,1.922,0.0,0.0,0.0,3.976,-6.576
7936,2,7936,43,-9.669,-1.276,-10.961,83.645,21.648,26.881,0.11,0.15,0.0,-811.0,-9.669,-1.306,-10.972,83.162,21.704,27.243,0.14,0.13,0.1,-811.0,2.512,90640.664,930.273,2.518,90643.296,930.599,7936,-10.961,930.599,-30279152.0,9.406,1.779,0.0,0.0,0.0,3.983,-6.575
7972,2,7972,36,-9.686,-1.272,-10.970,83.630,21.482,26.845,0.13,0.17,0.2,-811.0,-9.619,-1.241,-10.972,83.484,21.368,26.834,0.18,0.28,0.10,-811.0,2.513,90640.648,930.154,2.509,90639.937,930.199,7972,-10.970,930.199,-30673918.0,-11.98,2.499,0.0,0.0,0.0,3.976,-6.580
8030,2,8030,58,-9.659,-1.254,-10.982,83.440,21.493,26.863,0.14,0.18,0.2,-811.0,-9.518,-1.249,-10.987,83.16,21.864,26.936,0.15,0.19,0.0,-811.0,2.516,90640.867,930.215,2.523,90637.781,929.992,8030,-10.982,929.992,-31310556.0,-3.576,2.120,0.0,0.0,0.0,3.976,-6.588
8066,2,8066,36,-9.670,-1.272,-10.977,83.247,21.613,26.951,0.15,0.19,0.3,-811.0,-9.741,-1.277,-10.972,82.870,22.244,27.82,0.13,0.13,0.3,-811.0,2.513,90639.515,930.135,2.500,90635.500,929.691,8066,-10.977,929.691,-31705840.0,-8.346,2.334,0.0,0.0,0.0,3.983,-6.585
8110,2,8110,44,-9.652,-1.276,-10.978,83.186,21.803,26.924,0.15,0.18,0.2,-811.0,-9.712,-1.306,-10.987,83.396,21.835,26.527,0.15,0.18,0.2,-811.0,2.513,90638.625,930.176,2.514,90636.578,930.396,8110,-10.978,930.396,-32188870.0,16.21,1.675,0.0,0.0,0.0,3.976,-6.586
8146,2,8146,36,-9.683,-1.272,-10.990,83.60,21.882,26.822,0.16,0.21,0.2,-811.0,-9.827,-1.284,-11.30,82.534,22.98,26.731,0.19,0.29,0.4,-811.0,2.513,90638.593,930.116,2.518,90643.179,930.303,8146,-10.990,930.303,-32584308.0,-2.599,2.84,0.0,0.0,0.0,3.976,-6.592
8188,2,8188,42,-9.706,-1.279,-10.998,83.45,22.28,26.845,0.15,0.15,0.3,-811.0,-9.734,-1.277,-11.15,83.411,22.98,26.951,0.12,0.2,0.11,-811.0,2.516,90638.367,930.136,2.523,90638.804,930.297,8188,-10.998,930.297,-33046074.0,0.130,2.3,0.0,0.0,0.0,3.983,-6.598
8224,2,8224,36,-9.713,-1.280,-10.981,82.993,22.104,26.837,0.15,0.17,0.2,-811.0,-9.554,-1.256,-10.901,82.753,22.244,26.892,0.18,0.30,0.4,-811.0,2.514,90637.898,930.240,2.514,90635.445,930.511,8224,-10.981,930.511,-33441720.0,5.930,1.848,0.0,0.0,0.0,3.983,-6.587
8267,2,8267,43,-9.698,-1.282,-10.991,83.127,22.110,26.743,0.16,0.19,0.2,-811.0,-9.662,-1.284,-11.23,83.542,22.274,26.615,0.14,0.23,0.3,-811.0,2.519,90639.0,930.342,2.528,90640.960,930.205,8267,-10.991,930.205,-33914140.0,-7.115,2.271,0.0,0.0,0.0,3.976,-6.593
8303,2,8303,36,-9.686,-1.286,-11.3,82.940,22.157,26.810,0.15,0.18,0.4,-811.0,-9.655,-1.328,-11.44,82.461,22.69,26.863,0.14,0.13,0.8,-811.0,2.520,90639.640,930.324,2.518,90639.820,930.303,8303,-11.3,930.303,-34310044.0,2.721,1.924,0.0,0.0,0.0,3.983,-6.600
8345,2,8345,42,-9.633,-1.287,-10.980,83.69,22.63,26.831,0.14,0.17,0.5,-811.0,-9.561,-1.292,-10.915,83.177,21.631,26.834,0.11,0.20,0.6,-811.0,2.521,90636.539,930.304,2.523,90627.648,930.205,8345,-10.980,930.205,-34771692.0,-2.332,2.75,0.0,0.0,0.0,3.976,-6.586
8381,2,8381,36,-9.624,-1.289,-10.977,83.60,21.940,26.658,0.14,0.21,0.3,-811.0,-9.690,-1.284,-11.1,83.367,21.484,26.88,0.14,0.17,0.3,-811.0,2.523,90636.70,930.548,2.532,90636.460,931.517,8381,-10.977,931.517,-35166924.0,36.444,1.477,0.0,0.0,0.0,3.976,-6.585
8425,2,8425,44,-9.652,-1.300,-11.0,83.145,21.873,26.541,0.13,0.18,0.5,-811.0,-9.690,-1.313,-11.15,83.177,21.908,26.308,0.14,0.16,0.3,-811.0,2.528,90635.609,930.487,2.537,90633.164,930.205,8425,-11.0,930.205,-35650428.0,-29.818,10.483,0.0,0.0,0.0,3.976,-6.599
8461,2,8461,36,-9.650,-1.309,-11.0,83.63,21.756,26.606,0.13,0.15,0.5,-811.0,-9.655,-1.328,-11.23,83.133,21.689,26.936,0.12,0.10,0.7,-811.0,2.528,90634.937,930.629,2.528,90637.601,930.915,8461,-11.0,930.915,-36046436.0,19.734,1.628,0.0,0.0,0.0,3.970,-6.599
8503,2,8503,42,-9.544,-1.325,-10.980,83.104,21.730,26.600,0.12,0.16,0.1,-811.0,-9.123,-1.406,-10.944,82.665,21.938,26.834,0.11,0.16,0.11,-811.0,2.531,90635.601,930.750,2.537,90643.125,930.910,8503,-10.980,930.910,-36508020.0,0.130,2.3,0.0,0.0,0.0,3.970,-6.586
8567,2,8567,64,-9.573,-1.319,-11.1,83.10,21.669,26.615,0.12,0.15,0.1,-811.0,-9.705,-1.263,-11.23,82.709,21.324,26.907,0.11,0.14,0.3,-811.0,2.533,90638.929,930.789,2.532,90644.320,930.396,8567,-11.1,930.396,-37211436.0,-8.22,2.316,0.0,0.0,0.0,3.963,-6.599
8608,2,8608,41,-9.560,-1.312,-10.990,82.899,21.730,26.699,0.12,0.15,0.0,-811.0,-9.626,-1.249,-10.944,82.812,21.791,26.512,0.12,0.16,0.6,-811.0,2.529,90638.296,930.626,2.514,90633.281,930.703,8608,-10.990,930.703,-37662268.0,7.476,1.816,0.0,0.0,0.0,3.963,-6.592
8644,2,8644,36,-9.560,-1.303,-10.975,82.838,21.683,26.825,0.12,0.15,0.0,-811.0,-9.690,-1.270,-10.944,82.870,21.674,26.936,0.14,0.20,0.4,-811.0,2.526,90639.195,930.686,2.518,90637.664,930.505,8644,-10.975,930.505,-38057656.0,-5.488,2.197,0.0,0.0,0.0,3.963,-6.584
8687,2,8687,43,-9.550,-1.290,-10.981,82.820,21.765,26.831,0.12,0.16,0.2,-811.0,-9.604,-1.263,-11.51,83.45,22.98,26.965,0.12,0.12,0.0,-811.0,2.526,90639.867,930.685,2.528,90640.960,930.910,8687,-10.981,930.910,-38529740.0,9.406,1.779,0.0,0.0,0.0,3.963,-6.587
8723,2,8723,36,-9.584,-1.283,-10.995,82.914,21.710,26.714,0.13,0.20,0.1,-811.0,-9.296,-1.371,-11.15,83.133,21.660,26.249,0.15,0.38,0.7,-811.0,2.525,90640.312,930.484,2.532,90645.343,929.904,8723,-10.995,929.904,-38925332.0,-27.943,7.184,0.0,0.0,0.0,3.963,-6.596
8766,2,8766,43,-9.637,-1.299,-11.18,83.63,21.666,26.696,0.13,0.17,0.4,-811.0,-9.970,-1.342,-11.138,83.455,21.104,26.819,0.10,0.1,0.11,-811.0,2.524,90638.539,930.445,2.528,90635.445,930.205,8766,-11.18,930.205,-39398648.0,7.0,1.826,0.0,0.0,0.0,3.963,-6.610
8802,2,8802,36,-9.609,-1.246,-10.915,83.197,21.639,26.714,0.14,0.16,0.0,-811.0,-9.482,0.983,-10.427,83.484,21.660,26.600,0.18,0.12,0.14,-811.0,2.527,90638.296,930.386,2.528,90632.85,930.407,8802,-10.915,930.407,-39793468.0,5.610,1.855,0.0,0.0,0.0,3.963,-6.548
8845,2,8845,43,-9.639,-1.224,-10.939,83.346,21.604,26.591,0.16,0.16,0.5,-811.0,-9.841,-1.162,-11.66,83.615,21.499,26.322,0.23,0.22,0.23,-811.0,2.528,90638.289,930.346,2.528,90637.601,930.303,8845,-10.939,930.303,-40263360.0,-2.418,2.78,0.0,0.0,0.0,3.963,-6.562
8882,2,8882,37,-9.678,-1.213,-10.895,83.408,21.520,26.410,0.17,0.19,0.4,-811.0,-9.798,-1.205,-10.829,83.352,21.674,26.59,0.16,0.26,0.7,-811.0,2.528,90637.609,930.266,2.523,90637.601,930.511,8882,-10.895,930.511,-40667312.0,5.621,1.855,0.0,0.0,0.0,3.963,-6.536
8923,2,8923,41,-9.745,-1.197,-10.882,83.455,21.514,26.468,0.16,0.13,0.2,-811.0,-9.633,-1.292,-10.951,83.367,21.631,26.541,0.10,0.7,0.0,-811.0,2.527,90636.296,930.407,2.528,90638.742,930.609,8923,-10.882,930.609,-41113756.0,2.402,1.932,0.0,0.0,0.0,3.963,-6.528
8959,2,8959,36,-9.708,-1.181,-10.852,83.355,21.619,26.328,0.16,0.15,0.0,-811.0,-9.784,-1.263,-10.987,82.958,21.631,26.118,0.12,0.9,0.2,-811.0,2.526,90636.953,930.407,2.523,90638.742,930.205,8959,-10.852,930.205,-41504980.0,-11.235,2.508,0.0,0.0,0.0,3.963,-6.510
9003,2,9003,44,-9.739,-1.227,-10.958,83.294,21.698,26.366,0.16,0.16,0.1,-811.0,-9.640,-1.213,-10.958,83.177,22.54,26.790,0.18,0.14,0.3,-811.0,2.528,90637.835,930.407,2.537,90636.523,930.407,9003,-10.958,930.407,-41984820.0,4.590,1.878,0.0,0.0,0.0,3.963,-6.574
9068,2,9068,65,-9.725,-1.246,-10.935,83.338,21.707,26.375,0.15,0.14,0.2,-811.0,-9.769,-1.256,-10.951,83.835,21.543,26.366,0.18,0.15,0.1,-811.0,2.528,90636.984,930.344,2.528,90633.281,929.986,9068,-10.935,929.986,-42696380.0,-6.467,2.240,0.0,0.0,0.0,3.957,-6.560
9115,2,9115,47,-9.689,-1.236,-10.968,83.390,21.669,26.392,0.13,0.13,0.1,-811.0,-9.619,-1.155,-10.994,83.615,21.484,26.147,0.10,0.20,0.1,-811.0,2.526,90636.578,930.201,2.514,90635.562,929.795,9115,-10.968,929.795,-43211128.0,-4.63,2.138,0.0,0.0,0.0,3.963,-6.580
9151,2,9151,36,-9.676,-1.228,-10.982,83.303,21.674,26.451,0.14,0.14,0.2,-811.0,-9.568,-1.256,-11.23,82.928,21.660,26.834,0.14,0.14,0.3,-811.0,2.523,90635.937,930.98,2.514,90635.562,930.95,9151,-10.982,930.95,-43606256.0,8.331,1.800,0.0,0.0,0.0,3.963,-6.588
9193,2,9193,42,-9.655,-1.234,-10.977,83.253,21.616,26.448,0.14,0.14,0.2,-811.0,-9.676,-1.292,-10.958,82.709,21.338,26.103,0.12,0.8,0.0,-811.0,2.521,90636.171,930.97,2.514,90639.937,930.199,9193,-10.977,930.199,-44067420.0,2.476,1.930,0.0,0.0,0.0,3.963,-6.585
9229,2,9229,36,-9.653,-1.243,-10.982,83.279,21.423,26.308,0.13,0.14,0.1,-811.0,-9.633,-1.256,-10.987,83.308,21.90,26.88,0.11,0.11,0.0,-811.0,2.516,90636.398,930.55,2.509,90637.664,930.199,9229,-10.982,930.199,-44462704.0,0.0,2.0,0.0,0.0,0.0,3.963,-6.588
9272,2,9272,43,-9.642,-1.241,-10.980,83.80,21.394,26.284,0.13,0.14,0.1,-811.0,-9.712,-1.249,-10.937,82.841,21.397,26.249,0.18,0.16,0.1,-811.0,2.516,90636.398,930.158,2.528,90633.281,930.500,9272,-10.980,930.500,-44934908.0,7.0,1.826,0.0,0.0,0.0,3.963,-6.586
9308,2,9308,36,-9.650,-1.264,-10.971,83.25,21.379,26.223,0.15,0.13,0.2,-811.0,-9.662,-1.270,-10.951,83.338,21.411,25.840,0.18,0.16,0.7,-811.0,2.517,90637.46,930.279,2.523,90638.804,930.401,9308,-10.971,930.401,-45330036.0,-2.751,2.89,0.0,0.0,0.0,3.963,-6.581
9355,2,9355,47,-9.672,-1.266,-10.965,83.142,21.268,26.150,0.16,0.14,0.3,-811.0,-9.676,-1.263,-10.994,83.513,21.104,26.468,0.18,0.18,0.7,-811.0,2.520,90637.914,930.321,2.528,90639.882,930.303,9355,-10.965,930.303,-45845560.0,-2.95,2.67,0.0,0.0,0.0,3.963,-6.578
9391,2,9391,36,-9.662,-1.247,-10.970,83.232,21.180,26.132,0.17,0.15,0.4,-811.0,-9.626,-1.198,-10.980,83.162,20.900,26.15,0.17,0.14,0.6,-811.0,2.522,90638.328,930.321,2.523,90642.39,930.199,9391,-10.970,930.199,-46240404.0,-2.873,2.94,0.0,0.0,0.0,3.963,-6.580
9436,2,9436,45,-9.653,-1.240,-10.964,83.308,21.169,26.147,0.20,0.17,0.5,-811.0,-9.590,-1.220,-10.958,83.688,21.31,26.161,0.27,0.19,0.4,-811.0,2.524,90637.898,930.402,2.518,90635.500,930.604,9436,-10.964,930.604,-46733928.0,8.988,1.787,0.0,0.0,0.0,3.970,-6.577
9472,2,9472,36,-9.642,-1.257,-10.968,83.408,21.154,26.106,0.27,0.14,0.1,-811.0,-9.655,-1.335,-10.958,83.338,21.324,26.45,0.52,0.0,0.16,-811.0,2.524,90640.335,930.341,2.528,90645.460,930.199,9472,-10.968,930.199,-47128720.0,-11.235,2.508,0.0,0.0,0.0,3.976,-6.580
9514,2,9514,42,-9.647,-1.266,-10.977,83.519,21.49,26.45,0.25,0.14,0.2,-811.0,-9.690,-1.313,-10.994,83.893,20.885,25.533,0.13,0.16,0.12,-811.0,2.524,90640.992,930.261,2.523,90642.101,929.997,9514,-10.977,929.997,-47589584.0,-4.808,2.168,0.0,0.0,0.0,3.976,-6.585
9578,2,9578,64,-9.636,-1.263,-10.977,83.513,20.955,25.910,0.24,0.13,0.2,-811.0,-9.619,-1.249,-10.994,83.484,20.637,25.796,0.11,0.16,0.7,-811.0,2.523,90640.578,930.257,2.523,90637.781,930.287,9578,-10.977,930.287,-48292128.0,4.522,1.880,0.0,0.0,0.0,3.976,-6.585
9619,2,9619,41,-9.644,-1.272,-10.975,83.592,20.938,25.790,0.23,0.13,0.2,-811.0,-9.669,-1.241,-10.972,83.557,20.812,25.416,0.12,0.14,0.1,-811.0,2.519,90641.273,930.296,2.505,90645.515,930.391,9619,-10.975,930.391,-48742164.0,2.536,1.929,0.0,0.0,0.0,3.976,-6.584
9655,2,9655,36,-9.667,-1.270,-10.982,83.469,20.859,25.688,0.20,0.12,0.3,-811.0,-9.705,-1.213,-10.994,83.75,20.637,25.650,0.13,0.14,0.0,-811.0,2.517,90642.171,930.152,2.505,90640.0,929.888,9655,-10.982,929.888,-49137420.0,-13.970,2.721,0.0,0.0,0.0,3.976,-6.588
9698,2,9698,43,-9.672,-1.264,-10.978,83.548,20.722,25.594,0.12,0.15,0.1,-811.0,-9.676,-1.306,-10.937,83.732,20.637,25.577,0.14,0.14,0.3,-811.0,2.511,90639.765,930.49,2.500,90633.398,929.680,9698,-10.978,929.680,-49609596.0,-4.837,2.169,0.0,0.0,0.0,3.976,-6.586
9734,2,9734,36,-9.670,-1.254,-10.987,83.434,20.651,25.632,0.13,0.14,0.1,-811.0,-9.683,-1.263,-11.37,83.323,20.534,25.723,0.14,0.13,0.1,-811.0,2.505,90639.132,930.148,2.495,90638.976,930.495,9734,-10.987,930.495,-50004984.0,22.638,1.595,0.0,0.0,0.0,3.976,-6.591
9776,2,9776,42,-9.675,-1.239,-11.0,83.484,20.686,25.600,0.13,0.12,0.0,-811.0,-9.640,-1.170,-11.59,83.732,20.812,25.635,0.12,0.6,0.0,-811.0,2.500,90638.476,930.250,2.495,90634.476,930.795,9776,-11.0,930.795,-50466720.0,7.154,1.823,0.0,0.0,0.0,3.976,-6.599
9812,2,9812,36,-9.663,-1.234,-11.7,83.703,20.663,25.665,0.12,0.13,0.0,-811.0,-9.611,-1.220,-11.8,84.653,20.695,25.738,0.10,0.16,0.2,-811.0,2.499,90636.710,930.311,2.500,90636.695,930.697,9812,-11.7,930.697,-50862856.0,-2.736,2.89,0.0,0.0,0.0,3.976,-6.603
9855,2,9855,43,-9.640,-1.230,-10.997,83.931,20.602,25.606,0.12,0.14,0.1,-811.0,-9.590,-1.191,-10.944,84.215,20.330,25.358,0.11,0.21,0.8,-811.0,2.500,90637.148,930.412,2.509,90642.218,930.391,9855,-10.997,930.391,-51335956.0,-7.116,2.271,0.0,0.0,0.0,3.983,-6.597
9891,2,9891,36,-9.640,-1.234,-11.18,83.861,20.561,25.629,0.12,0.14,0.2,-811.0,-9.676,-1.328,-11.44,83.382,20.432,25.694,0.14,0.15,0.0,-811.0,2.499,90637.796,930.534,2.495,90636.640,930.292,9891,-11.18,930.292,-51732248.0,-2.734,2.89,0.0,0.0,0.0,3.976,-6.610
9933,2,9933,42,-9.633,-1.244,-11.14,83.902,20.587,25.659,0.11,0.15,0.3,-811.0,-9.647,-1.313,-11.15,83.528,20.666,25.869,0.10,0.17,0.3,-811.0,2.501,90636.679,930.534,2.505,90633.398,930.495,9933,-11.14,930.495,-52194948.0,4.821,1.873,0.0,0.0,0.0,3.976,-6.607
9969,2,9969,36,-9.655,-1.260,-11.11,83.767,20.555,25.741,0.11,0.17,0.4,-811.0,-9.748,-1.249,-11.44,83.60,20.651,26.45,0.10,0.17,0.7,-811.0,2.504,90637.796,930.514,2.509,90640.0,930.697,9969,-11.11,930.697,-52591420.0,5.610,1.855,0.0,0.0,0.0,3.976,-6.605
10013,2,10013,44,-9.676,-1.272,-11.10,83.539,20.625,25.708,0.11,0.17,0.4,-811.0,-9.719,-1.277,-11.1,83.513,21.46,25.577,0.13,0.17,0.2,-811.0,2.505,90638.218,930.474,2.505,90638.859,930.495,10013,-11.10,930.495,-53075904.0,-4.590,2.159,0.0,0.0,0.0,3.976,-6.605
10049,2,10049,36,-9.680,-1.270,-11.14,83.320,20.666,25.837,0.12,0.16,0.4,-811.0,-9.611,-1.184,-10.965,83.118,20.534,26.1,0.13,0.16,0.5,-811.0,2.505,90637.109,930.495,2.514,90636.640,930.495,10049,-11.14,930.495,-53472352.0,0.0,2.0,0.0,0.0,0.0,3.976,-6.607
10119,2,10119,70,-9.699,-1.256,-11.5,83.230,20.739,25.828,0.11,0.16,0.4,-811.0,-9.769,-1.256,-11.1,82.928,20.798,25.650,0.11,0.13,0.2,-811.0,2.509,90637.132,930.514,2.514,90636.757,930.386,10119,-11.5,930.386,-54243068.0,-1.557,2.49,0.0,0.0,0.0,3.976,-6.602
10156,2,10156,37,-9.711,-1.236,-11.5,83.177,20.704,25.787,0.12,0.16,0.3,-811.0,-9.705,-1.213,-11.15,83.265,20.491,25.665,0.14,0.15,0.0,-811.0,2.506,90638.460,930.513,2.491,90640.54,930.490,10156,-11.5,930.490,-54650288.0,2.810,1.922,0.0,0.0,0.0,3.976,-6.602
10197,2,10197,41,-9.696,-1.236,-11.7,83.215,20.593,25.752,0.12,0.15,0.2,-811.0,-9.676,-1.249,-11.51,83.250,20.96,25.869,0.12,0.14,0.1,-811.0,2.505,90638.460,930.372,2.505,90640.0,929.992,10197,-11.7,929.992,-55101560.0,-12.145,2.573,0.0,0.0,0.0,3.976,-6.603
10233,2,10233,36,-9.698,-1.241,-11.18,83.194,20.558,25.814,0.12,0.13,0.2,-811.0,-9.726,-1.306,-11.59,83.411,20.871,25.884,0.12,0.9,0.0,-811.0,2.506,90638.234,930.373,2.509,90637.718,930.500,10233,-11.18,930.500,-55498032.0,14.124,1.702,0.0,0.0,0.0,3.983,-6.610
10276,2,10276,43,-9.711,-1.247,-11.4,83.364,20.581,25.805,0.13,0.14,0.1,-811.0,-9.676,-1.213,-10.893,83.966,20.651,25.957,0.14,0.21,0.1,-811.0,2.506,90637.578,930.413,2.514,90633.343,930.697,10276,-11.4,930.697,-55971536.0,4.569,1.879,0.0,0.0,0.0,3.983,-6.601
10312,2,10312,36,-9.731,-1.177,-11.34,83.574,20.543,25.875,0.68,0.39,0.14,-811.0,-9.870,0.904,-11.152,83.981,20.608,26.1,0.286,0.135,0.68,-811.0,2.506,90638.210,930.355,2.514,90639.937,930.95,10312,-11.34,930.95,-56368240.0,-16.708,3.5,0.0,0.0,0.0,3.976,-6.619
10354,2,10354,42,-9.711,-1.198,-11.15,83.618,20.508,25.875,0.62,0.13,0.8,-811.0,-9.604,-1.320,-10.922,83.484,20.315,25.665,0.15,0.110,0.32,-811.0,2.511,90638.390,930.377,2.514,90640.960,930.599,10354,-11.15,930.599,-56831304.0,11.989,1.735,0.0,0.0,0.0,3.976,-6.608
10396,2,10396,42,-9.751,-3.121,-10.499,83.808,20.628,25.825,0.81,0.35,0.1,-811.0,-9.877,-10.861,-8.467,84.200,20.695,25.621,0.109,0.121,0.31,-811.0,2.515,90638.367,930.540,2.523,90639.882,930.806,10396,-10.499,930.806,-57283120.0,4.926,1.871,0.0,0.0,0.0,3.976,-6.298
10433,2,10433,37,-9.975,-3.248,-10.471,83.852,20.675,25.770,0.17,0.26,0.15,-811.0,-10.846,-1.945,-10.922,83.630,21.104,25.606,0.306,0.35,0.69,-811.0,2.516,90638.578,930.500,2.514,90638.742,930.303,10433,-10.471,930.303,-57671084.0,-13.594,2.688,0.0,0.0,0.0,3.976,-6.282
10475,2,10475,42,-10.1,-3.228,-10.502,83.805,20.947,25.717,0.16,0.15,0.5,-811.0,-9.805,-1.112,-11.44,83.732,22.11,25.694,0.9,0.33,0.48,-811.0,2.517,90639.882,930.543,2.523,90639.882,930.910,10475,-10.502,930.910,-58111536.0,14.452,1.697,0.0,0.0,0.0,3.970,-6.300
10511,2,10511,36,-9.610,-3.283,-10.456,83.694,21.303,25.749,0.57,0.29,0.10,-811.0,-7.917,-1.177,-10.922,83.425,22.391,26.161,0.83,0.203,0.9,-811.0,2.519,90640.85,930.604,2.523,90640.960,930.401,10511,-10.456,930.401,-58488780.0,-14.124,2.735,0.0,0.0,0.0,3.970,-6.272
10554,2,10554,43,-9.477,-3.205,-10.619,83.943,21.604,25.828,0.29,0.12,0.0,-811.0,-8.937,0.933,-11.741,84.726,21.821,26.59,0.417,0.192,0.15,-811.0,2.523,90638.757,930.403,2.532,90634.304,929.598,10554,-10.619,929.598,-58941908.0,-18.685,3.275,0.0,0.0,0.0,3.970,-6.370
10607,2,10607,53,-9.428,0.773,-11.347,83.954,21.321,25.834,0.88,0.143,0.27,-811.0,-9.633,1.299,-12.107,84.258,19.277,25.650,0.405,0.658,0.107,-811.0,2.523,90638.93,930.302,2.523,90636.578,930.297,10607,-11.347,930.297,-59524044.0,13.197,1.716,0.0,0.0,0.0,3.963,-6.807
10654,2,10654,47,-8.542,-1.243,-11.24,84.408,20.634,25.548,0.388,0.286,0.86,-811.0,-6.417,-4.292,-9.307,85.895,17.670,24.174,-1.194,0.751,0.367,-811.0,2.525,90637.664,930.362,2.523,90636.578,930.604,10654,-11.24,930.604,-60049792.0,6.521,1.836,0.0,0.0,0.0,3.963,-6.613
10690,2,10690,36,-8.420,-1.307,-10.896,85.24,19.304,25.331,0.449,0.358,0.38,-811.0,-9.195,-1.435,-10.405,86.816,15.361,24.612,0.313,0.392,0.288,-811.0,2.526,90637.218,930.241,2.528,90637.664,930.303,10690,-10.896,930.303,-60444376.0,-8.361,2.334,0.0,0.0,0.0,3.957,-6.537
10734,2,10734,44,-8.693,-1.451,-11.166,85.670,17.798,25.10,0.452,0.419,0.63,-811.0,-9.281,-1.895,-12.272,86.655,14.864,24.554,0.69,0.102,0.115,-811.0,2.526,90636.562,930.261,2.523,90637.664,930.505,10734,-11.166,930.505,-60929776.0,4.602,1.878,0.0,0.0,0.0,3.963,-6.698
10770,2,10770,36,-8.800,-1.566,-10.810,86.21,16.375,24.609,0.371,0.375,0.61,-811.0,-9.475,-1.507,-9.960,86.480,14.703,24.57,0.14,0.24,0.3,-811.0,2.525,90636.789,930.464,2.528,90635.445,930.609,10770,-10.810,930.609,-61325368.0,2.888,1.920,0.0,0.0,0.0,3.957,-6.485
10812,2,10812,42,-8.815,-2.147,-10.734,86.635,15.384,24.261,0.292,0.241,0.42,-811.0,-9.705,-1.607,-11.726,87.328,14.323,23.911,0.9,0.15,0.12,-811.0,2.526,90637.210,930.445,2.528,90638.742,930.205,10812,-10.734,930.205,-61777820.0,-9.630,2.406,0.0,0.0,0.0,3.963,-6.439
10848,2,10848,36,-9.448,-1.587,-11.229,86.843,14.714,24.267,0.58,0.89,0.28,-811.0,-9.583,-1.493,-11.784,86.933,14.323,24.203,0.22,0.7,0.14,-811.0,2.528,90636.976,930.305,2.537,90635.382,929.904,10848,-11.229,929.904,-62173180.0,-8.361,2.334,0.0,0.0,0.0,3.963,-6.736
10891,2,10891,43,-9.511,-1.605,-11.496,86.854,14.539,24.144,0.8,0.26,0.45,-811.0,-9.511,-1.521,-11.741,86.875,14.484,23.998,0.65,0.76,0.83,-811.0,2.529,90637.195,930.286,2.532,90638.742,930.205,10891,-11.496,930.205,-62661808.0,7.0,1.826,0.0,0.0,0.0,3.963,-6.897
10927,2,10927,36,-9.548,-1.544,-11.384,86.863,14.443,23.992,0.26,0.7,0.27,-811.0,-9.468,-1.593,-11.712,86.699,14.381,23.794,0.19,0.7,0.23,-811.0,2.530,90638.734,930.327,2.528,90645.343,930.713,10927,-11.384,930.713,-63073684.0,14.124,1.702,0.0,0.0,0.0,3.963,-6.829
10969,2,10969,42,-9.564,-1.536,-11.743,86.828,14.507,23.908,0.32,0.20,0.34,-811.0,-9.554,-1.464,-11.755,86.305,15.24,23.633,0.45,0.38,0.37,-811.0,2.530,90639.390,930.348,2.528,90638.742,930.713,10969,-11.743,930.713,-63559388.0,0.0,2.0,0.0,0.0,0.0,3.963,-7.45
11005,2,11005,36,-9.479,-1.504,-11.775,86.685,14.577,23.925,0.35,0.22,0.34,-811.0,-9.281,-1.450,-11.884,86.612,14.674,23.998,0.22,0.4,0.14,-811.0,2.530,90638.703,930.369,2.528,90635.328,930.308,11005,-11.775,930.308,-63982736.0,-11.266,2.510,0.0,0.0,0.0,3.963,-7.64
11048,2,11048,43,-9.472,-1.513,-11.785,86.737,14.723,23.770,0.36,0.22,0.34,-811.0,-9.547,-1.536,-11.834,87.196,15.54,23.428,0.27,0.3,0.14,-811.0,2.531,90639.367,930.511,2.541,90638.687,930.614,11048,-11.785,930.614,-64489296.0,7.128,1.823,0.0,0.0,0.0,3.963,-7.70
11084,2,11084,36,-9.484,-1.504,-11.749,86.685,14.817,23.808,0.25,0.4,0.18,-811.0,-9.568,-1.478,-11.561,86.612,14.951,24.188,0.14,0.14,0.3,-811.0,2.533,90639.578,930.531,2.541,90639.820,930.308,11084,-11.749,930.308,-64912928.0,-8.514,2.343,0.0,0.0,0.0,3.963,-7.48
11153,2,11153,69,-9.492,-1.495,-11.746,86.553,14.940,23.779,0.25,0.0,0.15,-811.0,-9.511,-1.550,-11.697,86.42,14.995,23.648,0.17,0.18,0.9,-811.0,2.536,90638.484,930.469,2.541,90639.882,930.401,11153,-11.746,930.401,-65723552.0,1.356,1.960,0.0,0.0,0.0,3.950,-7.46
11190,2,11190,37,-9.472,-1.511,-11.765,86.579,14.828,23.814,0.20,0.10,0.10,-811.0,-9.454,-1.543,-11.848,86.436,14.469,23.808,0.21,0.9,0.8,-811.0,2.534,90638.710,930.367,2.518,90639.820,930.205,11190,-11.765,930.205,-66158528.0,-5.310,2.189,0.0,0.0,0.0,3.957,-7.58
11231,2,11231,41,-9.495,-1.524,-11.745,86.682,14.858,23.805,0.19,0.11,0.7,-811.0,-9.396,-1.514,-11.784,87.123,14.820,23.954,0.16,0.12,0.2,-811.0,2.534,90639.390,930.407,2.528,90638.742,930.505,11231,-11.745,930.505,-66640496.0,7.328,1.819,0.0,0.0,0.0,3.963,-7.46
11267,2,11267,36,-9.498,-1.498,-11.723,86.474,14.814,23.808,0.18,0.12,0.6,-811.0,-9.561,-1.406,-11.726,86.159,14.834,23.443,0.22,0.7,0.9,-811.0,2.531,90638.515,930.386,2.528,90634.304,930.511,11267,-11.723,930.511,-67062940.0,0.152,1.995,0.0,0.0,0.0,3.963,-7.33
11311,2,11311,44,-9.452,-1.559,-11.749,86.448,14.840,23.589,0.55,0.69,0.54,-811.0,-9.339,-1.780,-11.690,86.480,15.83,23.92,0.197,0.395,0.242,-811.0,2.528,90638.523,930.345,2.528,90639.882,930.101,11311,-11.749,930.101,-67579352.0,-9.305,2.387,0.0,0.0,0.0,3.963,-7.48
11347,2,11347,36,-9.395,-1.537,-11.795,86.577,14.931,23.431,0.62,0.82,0.53,-811.0,-9.224,-1.442,-11.927,86.685,15.448,22.858,0.56,0.47,0.5,-811.0,2.526,90637.859,930.446,2.528,90636.523,930.910,11347,-11.795,930.910,-68003168.0,22.455,1.597,0.0,0.0,0.0,3.963,-7.76
11390,2,11390,43,-9.419,-1.559,-11.791,86.734,15.179,23.262,0.62,0.82,0.53,-811.0,-9.576,-1.651,-11.827,87.225,15.711,22.961,0.18,0.10,0.9,-811.0,2.529,90638.78,930.569,2.537,90640.906,930.816,11390,-11.791,930.816,-68510288.0,-2.175,2.69,0.0,0.0,0.0,3.970,-7.73
11426,2,11426,36,-9.426,-1.590,-11.838,86.775,15.290,23.136,0.61,0.82,0.54,-811.0,-9.432,-1.672,-12.20,87.328,15.375,23.326,0.14,0.10,0.7,-811.0,2.531,90638.289,930.570,2.537,90639.820,930.511,11426,-11.838,930.511,-68935624.0,-8.483,2.341,0.0,0.0,0.0,3.963,-7.101
11470,2,11470,44,-9.408,-1.628,-11.888,86.796,15.407,23.130,0.61,0.82,0.54,-811.0,-9.468,-1.593,-11.977,86.261,15.419,23.414,0.18,0.7,0.7,-811.0,2.533,90640.46,930.469,2.537,90643.125,930.8,11470,-11.888,930.8,-69457632.0,-11.431,2.521,0.0,0.0,0.0,3.970,-7.132
11506,2,11506,36,-9.439,-1.618,-11.952,86.913,15.416,23.69,0.25,0.0,0.7,-811.0,-9.497,-1.730,-12.6,87.65,15.127,22.785,0.19,0.19,0.8,-811.0,2.535,90640.921,930.450,2.537,90644.203,930.8,11506,-11.952,930.8,-69886768.0,0.0,2.0,0.0,0.0,0.0,3.976,-7.170
11548,2,11548,42,-9.521,-1.662,-11.952,86.860,15.358,23.45,0.17,0.13,0.7,-811.0,-9.633,-1.665,-11.927,86.422,15.156,22.741,0.15,0.18,0.6,-811.0,2.538,90642.234,930.311,2.541,90643.125,930.210,11548,-11.952,930.210,-70388752.0,4.821,1.873,0.0,0.0,0.0,3.970,-7.170
11584,2,11584,36,-9.494,-1.669,-11.972,86.878,15.153,22.981,0.16,0.14,0.6,-811.0,-9.439,-1.686,-11.927,87.313,14.688,22.639,0.13,0.15,0.0,-811.0,2.539,90642.7,930.191,2.541,90639.765,930.216,11584,-11.972,930.216,-70819384.0,0.152,1.995,0.0,0.0,0.0,3.976,-7.182
11653,2,11653,69,-9.497,-1.659,-11.949,86.679,15.74,22.952,0.16,0.15,0.4,-811.0,-9.446,-1.622,-11.906,86.334,14.980,23.180,0.13,0.17,0.0,-811.0,2.540,90640.898,930.89,2.541,90634.304,930.3,11653,-11.949,930.3,-71644672.0,-3.86,2.102,0.0,0.0,0.0,3.970,-7.168
11695,2,11695,42,-9.511,-1.679,-11.927,86.813,14.907,22.858,0.15,0.17,0.4,-811.0,-9.540,-1.694,-11.870,86.933,14.586,22.946,0.15,0.15,0.4,-811.0,2.538,90639.359,930.88,2.528,90635.445,930.3,11695,-11.927,930.3,-72146088.0,0.0,2.0,0.0,0.0,0.0,3.976,-7.155
11731,2,11731,36,-9.580,-1.655,-11.908,86.752,14.834,22.873,0.14,0.16,0.3,-811.0,-9.841,-1.607,-11.913,86.758,14.761,22.858,0.13,0.16,0.5,-811.0,2.535,90639.601,930.108,2.523,90645.343,930.106,11731,-11.908,930.106,-72575144.0,2.873,1.920,0.0,0.0,0.0,3.976,-7.144
11773,2,11773,42,-9.586,-1.332,-11.927,86.737,14.712,22.838,0.14,0.15,0.2,-811.0,-9.662,0.50,-12.20,86.349,14.542,22.566,0.18,0.14,0.3,-811.0,2.533,90638.273,930.127,2.532,90636.523,930.308,11773,-11.927,930.308,-73075712.0,4.795,1.874,0.0,0.0,0.0,3.976,-7.155
11809,2,11809,36,-9.616,-1.388,-11.947,86.495,15.475,22.876,0.16,0.13,0.6,-811.0,-9.590,-1.966,-12.28,86.100,18.503,22.829,0.22,0.3,0.18,-811.0,2.533,90637.843,930.267,2.541,90637.601,930.915,11809,-11.947,930.915,-73505472.0,16.876,1.663,0.0,0.0,0.0,3.976,-7.167
11852,2,11852,43,-9.637,-1.424,-11.996,86.571,15.495,22.753,0.16,0.13,0.5,-811.0,-9.554,-1.801,-12.150,86.714,15.83,22.566,0.13,0.17,0.2,-811.0,2.533,90638.273,930.289,2.541,90636.460,930.112,11852,-11.996,930.112,-74020272.0,-18.685,3.275,0.0,0.0,0.0,3.983,-7.196
11888,2,11888,36,-9.632,-1.429,-12.12,86.366,15.463,22.700,0.15,0.14,0.4,-811.0,-9.511,-1.722,-11.949,85.910,14.425,22.683,0.11,0.19,0.0,-811.0,2.535,90639.367,930.390,2.537,90640.906,930.511,11888,-12.12,930.511,-74452432.0,11.82,1.750,0.0,0.0,0.0,3.976,-7.206
11936,2,11936,48,-9.561,-1.440,-12.0,86.305,15.328,22.686,0.16,0.14,0.5,-811.0,-9.489,-1.658,-11.855,86.451,14.89,22.785,0.14,0.18,0.7,-811.0,2.537,90636.945,930.471,2.532,90633.226,930.511,11936,-12.0,930.511,-75028752.0,0.0,2.0,0.0,0.0,0.0,3.976,-7.199
11972,2,11972,36,-9.614,0.765,-12.392,86.191,15.296,22.955,0.15,0.17,0.4,-811.0,-9.927,3.323,-13.980,85.779,14.381,23.911,0.15,0.27,0.0,-811.0,2.536,90637.601,930.431,2.528,90639.820,930.106,11972,-12.392,930.106,-75467840.0,-11.235,2.508,0.0,0.0,0.0,3.989,-7.434
12016,2,12016,44,-9.630,0.706,-12.378,86.226,14.399,22.964,0.14,0.19,0.2,-811.0,-9.669,-1.672,-11.956,86.275,14.16,22.873,0.15,0.14,0.6,-811.0,2.535,90637.593,930.310,2.537,90637.546,930.308,12016,-12.378,930.308,-76012808.0,4.577,1.879,0.0,0.0,0.0,3.976,-7.425
12052,2,12052,36,-9.636,0.700,-12.365,86.194,14.174,23.98,0.15,0.16,0.5,-811.0,-9.583,-1.773,-12.85,86.553,13.957,23.238,0.22,0.5,0.14,-811.0,2.534,90638.39,930.369,2.537,90638.687,930.407,12052,-12.365,930.407,-76458200.0,2.751,1.923,0.0,0.0,0.0,3.976,-7.418
12094,2,12094,42,-9.649,0.693,-12.378,86.416,14.229,23.218,0.15,0.16,0.6,-811.0,-9.576,-1.686,-12.13,87.21,14.703,23.282,0.10,0.18,0.2,-811.0,2.534,90638.703,930.348,2.537,90644.257,930.407,12094,-12.378,930.407,-76977824.0,0.0,2.0,0.0,0.0,0.0,3.983,-7.425
12158,2,12158,64,-9.678,0.673,-12.410,86.556,14.469,23.314,0.19,0.16,0.0,-811.0,-9.633,-1.557,-12.13,87.152,15.287,23.268,0.36,0.15,0.25,-811.0,2.535,90640.46,930.346,2.537,90639.937,930.500,12158,-12.410,930.500,-77771056.0,1.461,1.957,0.0,0.0,0.0,3.976,-7.444
12199,2,12199,41,-9.555,-1.698,-12.5,86.749,14.586,23.69,0.19,0.14,0.0,-811.0,-9.317,-1.801,-11.956,86.743,14.966,22.683,0.13,0.21,0.2,-811.0,2.532,90639.187,930.405,2.514,90635.500,930.401,12199,-12.5,930.401,-78271568.0,-2.416,2.78,0.0,0.0,0.0,3.976,-7.201
12235,2,12235,36,-10.148,-1.105,-11.972,87.68,14.443,23.323,0.32,0.198,0.254,-811.0,-12.634,1.292,-11.791,87.869,13.300,24.144,0.80,0.931,-1.260,-811.0,2.529,90639.203,930.504,2.523,90637.664,930.806,12235,-11.972,930.806,-78703160.0,11.235,1.747,0.0,0.0,0.0,3.976,-7.182
12278,2,12278,43,-10.652,0.881,-12.217,87.252,14.410,23.393,0.126,0.105,0.98,-811.0,-12.102,0.653,-13.313,87.474,13.797,23.589,0.492,0.459,0.795,-811.0,2.527,90637.898,930.524,2.523,90632.140,930.505,12278,-12.217,930.505,-79223240.0,-6.987,2.265,0.0,0.0,0.0,3.976,-7.329
12315,2,12315,37,-10.667,0.712,-11.778,87.284,13.899,23.481,0.292,0.137,0.130,-811.0,-9.647,0.839,-9.817,87.182,12.145,23.721,0.840,0.180,0.156,-811.0,2.524,90637.15,930.504,2.523,90639.820,930.308,12315,-11.778,930.308,-79667168.0,-5.339,2.190,0.0,0.0,0.0,3.976,-7.65
12356,2,12356,41,-10.707,0.875,-12.66,87.234,13.379,23.595,0.263,0.146,0.28,-811.0,-9.834,-2.376,-13.456,86.904,12.686,23.838,0.110,0.57,0.483,-811.0,2.521,90636.546,930.505,2.523,90637.601,930.505,12356,-12.66,930.505,-80155992.0,4.818,1.873,0.0,0.0,0.0,3.976,-7.238
12392,2,12392,36,-10.266,0.837,-11.40,87.53,13.250,24.177,0.136,0.393,0.198,-811.0,-7.113,-1.607,-6.823,85.837,14.323,25.591,0.620,1.256,1.131,-811.0,2.523,90637.632,930.466,2.523,90640.960,930.205,12392,-11.40,930.205,-80571920.0,-8.346,2.334,0.0,0.0,0.0,3.976,-6.623
12436,2,12436,44,-10.559,-2.24,-11.293,86.620,14.33,24.250,0.110,0.200,0.524,-811.0,-14.98,-4.644,-13.54,85.705,17.217,24.510,0.47,0.32,0.367,-811.0,2.524,90636.976,930.527,2.528,90634.359,931.112,12436,-11.293,931.112,-81063256.0,20.624,1.617,0.0,0.0,0.0,3.976,-6.774
12473,2,12473,37,-8.131,0.399,-12.401,86.123,14.942,24.524,0.304,0.546,0.499,-811.0,0.35,11.464,-18.854,84.989,18.342,24.963,1.585,1.272,0.671,-811.0,2.525,90638.70,930.467,2.528,90637.601,930.205,12473,-12.401,930.205,-81501608.0,-24.526,4.784,0.0,0.0,0.0,3.970,-7.439
12515,2,12515,42,-7.708,0.610,-12.395,85.714,16.357,24.907,0.789,0.586,0.609,-811.0,-7.530,-5.886,-9.788,85.135,19.219,25.635,1.587,0.379,0.394,-811.0,2.526,90636.523,930.445,2.528,90632.85,930.199,12515,-12.395,930.199,-82022344.0,0.130,2.3,0.0,0.0,0.0,3.970,-7.436
12551,2,12551,36,-7.662,0.581,-11.611,85.211,17.936,25.217,0.772,0.560,0.360,-811.0,-9.604,-2.232,-9.537,84.390,20.578,25.387,0.20,0.75,0.759,-811.0,2.528,90636.304,930.366,2.532,90636.523,930.106,12551,-11.611,930.106,-82454480.0,-2.583,2.84,0.0,0.0,0.0,3.970,-6.965
12594,2,12594,43,-7.769,0.604,-12.522,85.77,19.6,25.206,0.737,0.383,0.160,-811.0,-7.652,-1.722,-11.374,85.165,19.672,25.533,0.448,0.373,0.130,-811.0,2.528,90634.523,930.366,2.523,90632.85,930.205,12594,-12.522,930.205,-82973360.0,2.290,1.935,0.0,0.0,0.0,3.963,-7.511
12642,2,12642,48,-6.414,0.383,-12.117,84.896,19.719,25.524,0.857,0.499,0.86,-811.0,-7.322,0.294,-11.30,84.799,20.783,26.103,0.647,0.546,0.3,-811.0,2.528,90634.765,930.223,2.528,90635.500,930.401,12642,-12.117,930.401,-83564704.0,4.93,1.890,0.0,0.0,0.0,3.957,-7.269
12804,2,12804,162,-8.204,-2.192,-10.367,84.510,20.619,25.898,0.735,0.435,0.14,-811.0,-8.915,-1.414,-10.104,83.60,22.844,26.834,0.973,0.952,0.309,-811.0,2.528,90633.968,930.256,2.528,90633.632,930.370,12804,-10.367,930.370,-85385928.0,0.193,2.5,0.0,0.0,0.0,3.957,-6.219
12840,2,12840,36,-8.769,-1.790,-10.562,83.911,21.929,26.419,0.556,0.614,0.64,-811.0,-10.351,-3.876,-10.764,82.139,25.767,28.237,0.693,1.275,0.647,-811.0,2.517,90635.140,930.272,2.472,90637.953,930.277,12840,-10.562,930.277,-85762656.0,-2.583,2.84,0.0,0.0,0.0,3.950,-6.336
13005,2,13005,165,-8.922,-1.811,-10.750,83.332,23.402,26.939,0.625,0.711,0.220,-811.0,-10.372,-2.340,-10.477,81.496,27.945,27.988,0.364,0.408,0.17,-811.0,2.506,90634.578,930.344,2.482,90633.687,930.468,13005,-10.750,930.468,-87520952.0,1.160,1.966,0.0,0.0,0.0,3.963,-6.449
13041,2,13041,36,-9.192,-1.971,-10.428,82.508,25.150,27.529,0.577,0.755,0.181,-811.0,-9.1,-2.519,-9.766,81.43,28.412,28.485,0.210,0.595,0.64,-811.0,2.494,90636.187,930.399,2.459,90640.171,930.479,13041,-10.428,930.479,-87902176.0,0.305,1.990,0.0,0.0,0.0,3.957,-6.256
13103,2,13103,62,-9.649,-2.409,-10.257,81.680,26.603,28.0,0.464,0.755,0.203,-811.0,-9.604,-1.895,-10.176,80.663,28.47,28.456,0.80,0.546,0.108,-811.0,2.484,90636.664,930.375,2.482,90637.898,930.282,13103,-10.257,930.282,-88543464.0,-3.186,2.105,0.0,0.0,0.0,3.963,-6.153
13171,2,13171,68,-9.843,-2.541,-10.180,81.294,27.673,28.477,0.311,0.611,0.129,-811.0,-9.884,-2.74,-9.716,81.131,28.193,29.216,0.205,0.231,0.61,-811.0,2.476,90638.414,930.298,2.486,90642.335,929.981,13171,-10.180,929.981,-89238368.0,-4.418,2.152,0.0,0.0,0.0,3.957,-6.107
13207,2,13207,36,-9.920,-2.58,-9.985,80.993,28.137,28.842,0.194,0.470,0.44,-811.0,-10.738,-1.464,-9.788,80.634,28.91,30.64,0.109,0.568,0.222,-811.0,2.479,90639.46,930.240,2.486,90641.140,929.986,13207,-9.985,929.986,-89601352.0,0.139,1.995,0.0,0.0,0.0,3.963,-5.990
13250,2,13250,43,-9.637,-2.490,-10.111,80.929,28.126,29.470,0.141,0.376,0.76,-811.0,-8.958,-4.500,-11.109,81.175,27.886,31.131,0.99,0.58,0.142,-811.0,2.482,90640.85,930.144,2.500,90638.859,929.992,13250,-10.111,929.992,-90033432.0,0.127,1.996,0.0,0.0,0.0,3.963,-6.65
13286,2,13286,36,-11.217,-3.408,-10.595,81.17,28.47,29.976,0.7,0.236,0.117,-811.0,-16.898,-7.106,-12.186,81.482,28.18,31.14,0.457,0.103,0.268,-811.0,2.494,90639.359,929.987,2.514,90636.578,929.691,13286,-10.595,929.691,-90406152.0,-8.346,2.334,0.0,0.0,0.0,3.963,-6.356
13328,2,13328,42,-11.270,-3.441,-10.499,81.300,27.851,30.599,0.27,0.124,0.134,-811.0,-9.870,-2.60,-9.695,82.81,27.68,31.569,0.93,0.17,0.20,-811.0,2.500,90638.882,930.11,2.514,90635.500,930.401,13328,-10.499,930.401,-90849136.0,16.902,1.663,0.0,0.0,0.0,3.963,-6.298
13364,2,13364,36,-11.57,-3.292,-10.316,81.379,27.544,31.99,0.23,0.89,0.117,-811.0,-8.822,-1.328,-8.805,81.525,26.658,31.715,0.225,0.60,0.25,-811.0,2.508,90637.710,930.116,2.528,90636.460,930.511,13364,-10.316,930.511,-91223824.0,3.41,1.916,0.0,0.0,0.0,3.963,-6.189
13407,2,13407,43,-10.832,-3.534,-10.279,81.531,27.383,31.376,0.45,0.18,0.79,-811.0,-9.611,-2.677,-9.601,81.394,27.287,31.452,0.451,0.211,0.32,-811.0,2.517,90636.328,930.121,2.532,90634.242,930.8,13407,-10.279,930.8,-91666640.0,-11.697,2.540,0.0,0.0,0.0,3.963,-6.166
13444,2,13444,37,-10.921,-2.900,-9.909,81.540,27.287,31.490,0.18,0.83,0.117,-811.0,-9.403,-1.328,-9.257,81.218,27.404,31.701,0.31,0.266,0.332,-811.0,2.525,90636.523,930.184,2.537,90639.820,930.308,13444,-9.909,930.308,-92040128.0,8.106,1.804,0.0,0.0,0.0,3.957,-5.944
13489,2,13489,45,-9.423,-1.840,-9.326,81.484,27.164,31.724,0.120,0.113,0.68,-811.0,-9.410,-1.808,-9.271,81.204,27.404,32.183,0.52,0.47,0.23,-811.0,2.530,90638.507,930.267,2.541,90646.484,930.106,13489,-9.326,930.106,-92472920.0,-4.475,2.155,0.0,0.0,0.0,3.970,-5.594
13526,2,13526,37,-9.445,-1.761,-9.264,81.382,27.231,31.739,0.160,0.126,0.67,-811.0,-9.978,-1.665,-9.386,81.569,27.404,31.642,0.104,0.44,0.22,-811.0,2.535,90639.140,930.370,2.537,90638.687,930.915,13526,-9.264,930.915,-92816848.0,21.863,1.603,0.0,0.0,0.0,3.976,-5.557
13570,2,13570,44,-9.587,-1.863,-9.396,81.408,27.427,31.689,0.134,0.126,0.75,-811.0,-9.533,-1.837,-9.465,81.657,27.638,31.467,0.93,0.64,0.13,-811.0,2.538,90639.140,930.310,2.541,90636.460,930.210,13570,-9.396,930.210,-93227392.0,-16.21,2.925,0.0,0.0,0.0,3.970,-5.636
13607,2,13607,37,-9.560,-1.589,-9.341,81.464,27.509,31.672,0.74,0.96,0.63,-811.0,-9.475,-1.306,-9.329,81.672,27.696,31.365,0.154,0.61,0.28,-811.0,2.538,90639.812,930.430,2.532,90637.601,930.609,13607,-9.341,930.609,-93574056.0,10.783,1.755,0.0,0.0,0.0,3.976,-5.604
13676,2,13676,69,-9.558,-1.873,-9.432,81.461,27.775,31.616,0.114,0.45,0.22,-804.599,-9.396,-2.749,-9.709,81.204,28.734,31.423,0.167,0.8,0.100,-779.0,2.539,90640.46,930.327,2.541,90641.23,929.795,13676,-9.432,929.795,-94221768.0,-11.795,2.547,0.0,0.0,0.0,3.976,-5.658
13712,2,13712,36,-9.545,-1.847,-9.403,81.429,28.105,31.438,0.105,0.53,0.9,-804.599,-9.346,-1.679,-9.128,81.43,29.55,31.292,0.7,0.90,0.91,-811.0,2.534,90638.960,930.347,2.518,90641.23,930.205,13712,-9.403,930.205,-94560816.0,11.372,1.745,0.0,0.0,0.0,4.2,-5.641
13754,2,13754,42,-9.581,-1.765,-9.323,81.335,28.497,31.385,0.109,0.4,0.66,-804.599,-10.157,-1.256,-8.984,81.102,29.362,31.379,0.124,0.199,0.307,-811.0,2.531,90638.984,930.366,2.523,90638.804,931.8,13754,-9.323,931.8,-94954080.0,19.130,1.635,0.0,0.0,0.0,4.86,-5.593
13790,2,13790,36,-9.93,-1.698,-9.320,81.344,28.824,31.408,0.125,0.33,0.144,-804.599,-7.92,-1.500,-9.451,81.701,29.275,31.584,0.173,0.128,0.375,-811.0,2.528,90640.101,930.365,2.523,90642.39,930.205,13790,-9.320,930.205,-95289664.0,-22.318,4.26,0.0,0.0,0.0,4.157,-5.591
13833,2,13833,43,-8.958,-2.15,-9.435,81.394,29.421,31.210,0.284,0.36,0.117,-804.599,-8.800,-2.892,-9.903,81.920,30.678,30.371,0.950,0.411,0.106,-811.0,2.525,90640.109,930.384,2.518,90637.664,930.708,13833,-9.435,930.708,-95692912.0,11.697,1.740,0.0,0.0,0.0,4.208,-5.660
13869,2,13869,36,-9.64,-1.830,-9.397,81.458,29.973,31.8,0.390,0.86,0.101,-811.0,-9.927,-1.823,-9.522,81.525,31.496,30.415,0.693,0.259,0.23,-811.0,2.522,90640.531,930.427,2.528,90643.125,930.8,13869,-9.397,930.8,-96031912.0,-19.444,3.400,0.0,0.0,0.0,4.228,-5.637
13911,2,13911,42,-9.41,-1.886,-9.420,81.490,30.543,30.777,0.449,0.86,0.119,-811.0,-9.231,-1.959,-9.242,81.204,31.905,30.137,0.303,0.89,0.2,-811.0,2.525,90639.632,930.446,2.532,90636.523,930.303,13911,-9.420,930.303,-96427112.0,7.23,1.825,0.0,0.0,0.0,4.234,-5.651
13947,2,13947,36,-8.885,-2.210,-8.693,81.484,31.46,30.467,0.404,0.146,0.12,-811.0,-9.375,-2.878,-5.344,81.72,31.876,29.830,0.99,0.99,0.354,-811.0,2.527,90639.398,930.266,2.532,90637.664,930.106,13947,-8.693,930.106,-96753160.0,-5.457,2.195,0.0,0.0,0.0,4.241,-5.214
13990,2,13990,43,-9.580,-2.245,-8.744,81.575,31.406,30.157,0.303,0.181,0.141,-811.0,-10.566,-1.672,-9.709,82.154,31.72,30.35,0.327,0.46,0.269,-811.0,2.527,90638.296,930.427,2.523,90636.523,931.8,13990,-8.744,931.8,-97128072.0,20.976,1.613,0.0,0.0,0.0,4.247,-5.245
14026,2,14026,36,-9.716,-1.998,-8.611,81.642,31.379,30.239,0.128,0.138,0.157,-811.0,-9.482,-1.658,-9.235,82.256,30.546,30.780,0.74,0.198,0.185,-811.0,2.528,90638.960,930.386,2.523,90640.960,930.505,14026,-8.611,930.505,-97440480.0,-13.971,2.721,0.0,0.0,0.0,4.247,-5.165
14068,2,14068,42,-9.672,-2.1,-8.598,81.686,31.104,30.388,0.13,0.105,0.180,-811.0,-9.705,-1.837,-9.458,81.745,30.122,31.160,0.18,0.94,0.91,-811.0,2.528,90637.203,930.505,2.528,90634.359,930.604,14068,-8.598,930.604,-97801880.0,2.345,1.934,0.0,0.0,0.0,4.247,-5.158
14104,2,14104,36,-9.711,-1.936,-8.585,81.873,30.613,30.599,0.109,0.99,0.217,-811.0,-9.425,-1.636,-9.178,82.139,29.450,31.189,0.178,0.57,0.185,-811.0,2.526,90637.882,930.525,2.523,90639.882,930.401,14104,-8.585,930.401,-98111184.0,-5.625,2.203,0.0,0.0,0.0,4.253,-5.150
14147,2,14147,43,-9.797,-1.672,-9.296,82.326,30.40,30.821,0.78,0.16,0.252,-811.0,-9.805,-1.557,-8.898,83.338,29.11,30.941,0.55,0.315,0.530,-811.0,2.524,90638.109,930.685,2.523,90638.804,930.905,14147,-9.296,930.905,-98495632.0,11.710,1.740,0.0,0.0,0.0,4.247,-5.576
14216,2,14216,69,-10.25,-1.773,-9.419,82.598,29.541,30.798,0.262,0.182,0.158,-811.0,-11.708,-2.175,-10.326,83.513,28.573,29.918,1.380,0.877,0.199,-811.0,2.522,90637.703,930.560,2.514,90634.539,930.386,14216,-9.419,930.386,-99141320.0,-7.521,2.291,0.0,0.0,0.0,4.247,-5.650
14252,2,14252,36,-9.823,-1.738,-9.278,82.382,29.675,30.681,0.451,0.512,0.7,-811.0,-8.470,-1.485,-8.532,81.175,31.218,30.195,1.15,1.849,0.568,-811.0,2.517,90637.296,930.518,2.495,90638.921,930.292,14252,-9.278,930.292,-99477888.0,-2.597,2.84,0.0,0.0,0.0,4.247,-5.566
14294,2,14294,42,-9.797,-1.573,-8.789,82.329,29.967,30.646,0.373,0.483,0.78,-811.0,-9.576,-1.12,-7.10,81.482,31.584,30.985,0.408,0.53,0.445,-811.0,2.511,90637.546,930.475,2.500,90635.562,930.391,14294,-8.789,930.391,-99857320.0,2.344,1.934,0.0,0.0,0.0,4.247,-5.272
14330,2,14330,36,-9.901,-2.163,-9.96,82.364,30.219,30.795,0.386,0.351,0.110,-811.0,-9.949,-4.587,-10.714,82.315,30.707,31.935,0.109,0.602,0.346,-811.0,2.505,90636.890,930.534,2.495,90636.640,930.697,14330,-9.96,930.697,-100179264.0,8.500,1.796,0.0,0.0,0.0,4.247,-5.456
14373,2,14373,43,-10.552,-2.635,-9.458,82.142,30.280,30.993,0.356,0.384,0.31,-811.0,-13.57,-3.919,-10.707,82.227,29.318,31.935,0.96,0.149,0.135,-811.0,2.502,90636.695,930.350,2.505,90637.781,929.986,14373,-9.458,929.986,-100578192.0,-16.522,2.982,0.0,0.0,0.0,4.253,-5.674
14409,2,14409,36,-9.998,-2.456,-9.385,82.16,30.479,31.350,0.3,0.92,0.27,-811.0,-8.937,-1.277,-9.960,82.885,29.567,31.701,0.383,0.584,0.495,-811.0,2.500,90636.898,930.291,2.505,90635.562,930.90,14409,-9.385,930.90,-100917368.0,2.888,1.920,0.0,0.0,0.0,4.247,-5.630
14451,2,14451,42,-10.223,-2.456,-9.524,82.221,30.432,31.449,0.278,0.459,0.112,-811.0,-9.597,-1.485,-9.228,82.198,30.985,30.692,0.395,0.909,0.996,-811.0,2.504,90636.664,930.251,2.514,90637.781,930.90,14451,-9.524,930.90,-101314464.0,0.0,2.0,0.0,0.0,0.0,4.253,-5.713
14488,2,14488,37,-10.265,-2.734,-10.51,82.285,30.610,31.166,0.161,0.491,0.276,-811.0,-9.784,-2.404,-9.644,81.803,32.475,29.567,0.176,0.212,0.370,-811.0,2.505,90635.335,930.252,2.509,90628.906,930.396,14488,-10.51,930.396,-101676608.0,8.269,1.801,0.0,0.0,0.0,4.253,-6.29
14531,2,14531,43,-10.193,-2.266,-9.799,82.195,31.113,30.637,0.133,0.348,0.330,-811.0,-9.590,-2.246,-9.458,81.862,33.221,29.289,0.30,0.111,0.76,-811.0,2.508,90634.898,930.213,2.509,90634.476,930.500,14531,-9.799,930.500,-102103408.0,2.418,1.932,0.0,0.0,0.0,4.253,-5.878
14568,2,14568,37,-9.505,-1.857,-9.499,82.139,31.847,30.154,0.122,0.291,0.329,-811.0,-9.619,-1.873,-9.207,81.949,32.987,29.523,0.41,0.136,0.140,-811.0,2.511,90634.445,930.274,2.518,90635.500,930.292,14568,-9.499,930.292,-102460456.0,-5.621,2.202,0.0,0.0,0.0,4.253,-5.698
14609,2,14609,41,-9.693,-2.4,-9.352,82.11,32.411,29.731,0.49,0.161,0.218,-811.0,-9.877,-2.9,-9.221,82.242,32.388,29.581,0.17,0.69,0.58,-811.0,2.511,90634.445,930.355,2.505,90635.562,930.495,14609,-9.352,930.495,-102846920.0,4.939,1.870,0.0,0.0,0.0,4.247,-5.610
14645,2,14645,36,-9.689,-2.423,-9.364,82.8,32.738,29.657,0.30,0.19,0.27,-811.0,-9.576,-3.582,-9.293,82.183,32.622,30.327,0.4,0.5,0.43,-811.0,2.508,90634.210,930.437,2.500,90636.640,930.500,14645,-9.364,930.500,-103183824.0,0.152,1.995,0.0,0.0,0.0,4.253,-5.618
14689,2,14689,44,-9.643,-2.345,-9.308,82.25,32.750,29.704,0.6,0.63,0.42,-811.0,-9.554,-2.17,-9.364,81.891,32.534,29.801,0.7,0.4,0.20,-811.0,2.510,90635.546,930.416,2.518,90635.562,930.292,14689,-9.308,930.292,-103594648.0,-4.727,2.165,0.0,0.0,0.0,4.253,-5.584
14740,2,14740,51,-9.633,-2.291,-9.273,81.993,32.616,29.812,0.15,0.46,0.28,-804.599,-9.540,-1.974,-9.278,81.701,32.548,29.830,0.17,0.26,0.7,-779.0,2.508,90636.453,930.453,2.500,90638.976,930.686,14740,-9.273,930.686,-104068488.0,7.725,1.811,0.0,0.0,0.0,4.253,-5.562
14785,2,14785,45,-9.614,-2.295,-9.287,81.911,32.589,29.885,0.11,0.22,0.0,-804.599,-9.525,-1.895,-9.278,81.540,32.855,29.888,0.17,0.15,0.0,-811.0,2.503,90635.828,930.511,2.491,90632.375,930.582,14785,-9.287,930.582,-104486096.0,-2.311,2.74,0.0,0.0,0.0,4.253,-5.571
14821,2,14821,36,-9.550,-2.282,-9.296,81.677,32.624,29.850,0.8,0.9,0.14,-804.599,-9.554,-1.945,-9.264,81.72,32.563,29.406,0.6,0.6,0.19,-811.0,2.499,90636.62,930.469,2.486,90636.757,930.282,14821,-9.296,930.282,-104820600.0,-8.346,2.334,0.0,0.0,0.0,4.253,-5.576
14865,2,14865,44,-9.544,-1.945,-9.300,81.449,32.639,29.742,0.13,0.14,0.6,-804.599,-9.547,-1.895,-9.314,81.43,32.695,29.786,0.16,0.21,0.2,-811.0,2.494,90635.867,930.364,2.477,90635.679,929.976,14865,-9.300,929.976,-105229720.0,-6.953,2.263,0.0,0.0,0.0,4.247,-5.579
14901,2,14901,36,-9.540,-1.932,-9.297,81.441,32.692,29.710,0.14,0.17,0.3,-804.599,-9.533,-1.952,-9.350,81.847,32.797,29.640,0.15,0.18,0.4,-811.0,2.488,90635.453,930.422,2.486,90633.460,930.582,14901,-9.297,930.582,-105564480.0,16.845,1.664,0.0,0.0,0.0,4.247,-5.577
14943,2,14943,42,-9.528,-1.912,-9.300,81.335,32.747,29.605,0.14,0.15,0.6,-811.0,-9.482,-1.873,-9.293,81.175,32.826,29.304,0.14,0.16,0.5,-811.0,2.486,90634.359,930.380,2.491,90633.515,930.479,14943,-9.300,930.479,-105955032.0,-2.450,2.79,0.0,0.0,0.0,4.253,-5.579
14979,2,14979,36,-9.524,-1.913,-9.324,81.368,32.736,29.520,0.12,0.15,0.7,-811.0,-9.504,-1.902,-9.400,81.701,32.797,29.465,0.9,0.13,0.3,-811.0,2.484,90636.578,930.420,2.482,90643.476,930.779,14979,-9.324,930.779,-106290280.0,8.331,1.800,0.0,0.0,0.0,4.253,-5.593
15022,2,15022,43,-9.527,-1.919,-9.324,81.540,32.674,29.546,0.14,0.17,0.4,-811.0,-9.568,-1.974,-9.264,81.935,32.256,29.538,0.15,0.18,0.4,-811.0,2.483,90636.382,930.479,2.482,90635.734,930.577,15022,-9.324,930.577,-106691240.0,-4.696,2.164,0.0,0.0,0.0,4.253,-5.593
15058,2,15058,36,-9.511,-1.915,-9.310,81.680,32.627,29.529,0.14,0.17,0.3,-811.0,-9.468,-1.873,-9.242,81.745,32.461,29.698,0.16,0.19,0.0,-811.0,2.486,90636.156,930.660,2.491,90634.593,930.883,15058,-9.310,930.883,-107026672.0,8.499,1.796,0.0,0.0,0.0,4.253,-5.585
15100,2,15100,42,-9.502,-1.908,-9.285,81.636,32.534,29.479,0.14,0.16,0.2,-811.0,-9.489,-1.916,-9.228,81.628,32.329,29.391,0.17,0.17,0.0,-811.0,2.486,90637.500,930.641,2.486,90640.171,930.484,15100,-9.285,930.484,-107417192.0,-9.499,2.398,0.0,0.0,0.0,4.253,-5.570
15136,2,15136,36,-9.489,-1.777,-9.231,81.733,32.434,29.663,0.14,0.18,0.0,-811.0,-9.418,-1.220,-9.20,81.657,32.329,30.225,0.11,0.25,0.3,-811.0,2.485,90636.828,930.600,2.486,90630.156,930.277,15136,-9.231,930.277,-107750504.0,-5.762,2.209,0.0,0.0,0.0,4.253,-5.537
15179,2,15179,43,-9.505,-1.778,-9.212,81.762,32.376,29.757,0.14,0.19,0.0,-811.0,-9.583,-1.909,-9.307,81.847,32.505,29.932,0.12,0.18,0.3,-811.0,2.487,90635.39,930.501,2.491,90634.539,930.282,15179,-9.212,930.282,-108147056.0,0.114,1.996,0.0,0.0,0.0,4.253,-5.526
15215,2,15215,36,-9.492,-1.748,-9.204,81.844,32.519,29.874,0.14,0.19,0.0,-811.0,-9.504,-1.823,-9.221,82.344,32.972,30.122,0.13,0.18,0.3,-811.0,2.488,90635.257,930.562,2.486,90636.812,930.883,15215,-9.204,930.883,-108478560.0,16.708,1.666,0.0,0.0,0.0,4.253,-5.521
15284,2,15284,69,-9.497,-1.752,-9.229,81.683,32.531,29.921,0.13,0.19,0.0,-811.0,-9.489,-1.895,-9.372,80.941,32.519,29.932,0.13,0.19,0.5,-811.0,2.488,90635.710,930.420,2.491,90636.875,930.173,15284,-9.229,930.173,-109114536.0,-10.296,2.446,0.0,0.0,0.0,4.253,-5.537
15320,2,15320,36,-9.504,-1.757,-9.237,81.683,32.508,29.982,0.12,0.18,0.2,-811.0,-9.525,-1.938,-9.264,81.628,32.212,29.698,0.11,0.13,0.10,-811.0,2.483,90635.46,930.398,2.463,90636.875,930.375,15320,-9.237,930.375,-109446944.0,5.625,1.855,0.0,0.0,0.0,4.253,-5.541
15362,2,15362,42,-9.504,-1.902,-9.271,81.733,32.502,29.874,0.12,0.16,0.5,-811.0,-9.418,-1.945,-9.192,81.905,32.300,29.684,0.12,0.15,0.12,-811.0,2.482,90635.507,930.358,2.477,90632.437,930.75,15362,-9.271,930.75,-109835632.0,-7.154,2.273,0.0,0.0,0.0,4.253,-5.562
15398,2,15398,36,-9.495,-1.879,-9.261,81.794,32.388,29.897,0.13,0.15,0.7,-811.0,-9.540,-1.794,-9.257,82.154,31.935,30.49,0.16,0.10,0.4,-811.0,2.479,90635.750,930.438,2.477,90635.734,930.681,15398,-9.261,930.681,-110169232.0,16.845,1.664,0.0,0.0,0.0,4.253,-5.556
15441,2,15441,43,-9.510,-1.899,-9.271,81.712,32.215,29.941,0.13,0.15,0.7,-811.0,-9.576,-1.923,-9.271,81.935,32.110,30.342,0.12,0.17,0.2,-811.0,2.478,90635.750,930.458,2.482,90636.812,930.986,15441,-9.271,930.986,-110567696.0,7.90,1.824,0.0,0.0,0.0,4.253,-5.562
15486,2,15486,45,-9.521,-1.909,-9.228,81.923,32.192,29.985,0.13,0.16,0.5,-804.599,-9.547,-1.945,-9.156,81.993,32.402,30.152,0.13,0.26,0.0,-779.0,2.478,90636.398,930.539,2.491,90640.117,930.577,15486,-9.228,930.577,-110983952.0,-9.86,2.374,0.0,0.0,0.0,4.260,-5.536
15523,2,15523,37,-9.525,-1.909,-9.218,81.812,32.373,29.991,0.13,0.18,0.4,-804.599,-9.547,-1.938,-9.214,81.72,33.118,29.728,0.14,0.20,0.3,-811.0,2.482,90638.359,930.601,2.482,90646.710,930.686,15523,-9.218,930.686,-111325224.0,2.944,1.918,0.0,0.0,0.0,4.253,-5.530
15569,2,15569,46,-9.545,-1.923,-9.176,81.783,32.437,30.96,0.14,0.17,0.2,-804.599,-9.518,-2.17,-8.984,81.759,32.622,30.210,0.16,0.11,0.4,-811.0,2.482,90639.671,930.643,2.482,90638.976,930.282,15569,-9.176,930.282,-111748320.0,-8.793,2.358,0.0,0.0,0.0,4.253,-5.505
15606,2,15606,37,-9.573,-1.913,-9.204,81.563,32.543,30.119,0.14,0.17,0.2,-804.599,-9.676,-1.744,-9.393,81.58,32.461,30.166,0.13,0.12,0.0,-811.0,2.485,90640.320,930.543,2.491,90638.976,930.183,15606,-9.204,930.183,-112088368.0,-2.662,2.86,0.0,0.0,0.0,4.253,-5.521
15648,2,15648,42,-9.588,-1.915,-9.215,81.543,32.516,30.46,0.13,0.15,0.4,-804.599,-9.655,-1.931,-9.329,81.832,31.978,29.976,0.10,0.7,0.12,-811.0,2.489,90640.968,930.322,2.500,90640.54,929.882,15648,-9.215,929.882,-112475184.0,-7.165,2.273,0.0,0.0,0.0,4.253,-5.528
15685,2,15685,37,-9.606,-1.913,-9.245,81.493,32.502,30.26,0.13,0.14,0.3,-811.0,-9.633,-1.938,-9.307,81.745,32.329,30.49,0.14,0.20,0.3,-811.0,2.489,90641.398,930.305,2.491,90642.273,930.490,15685,-9.245,930.490,-112816720.0,16.418,1.669,0.0,0.0,0.0,4.253,-5.546
15727,2,15727,42,-9.597,-1.928,-9.241,81.522,32.394,30.49,0.13,0.15,0.2,-811.0,-9.504,-2.9,-9.192,81.218,32.578,29.845,0.13,0.26,0.4,-811.0,2.491,90639.171,930.306,2.491,90635.617,930.692,15727,-9.241,930.692,-113204952.0,4.808,1.873,0.0,0.0,0.0,4.253,-5.543
15789,2,15789,62,-9.614,-1.918,-9.316,81.601,32.373,30.64,0.12,0.14,0.3,-811.0,-9.604,-1.966,-9.357,82.154,32.519,30.283,0.12,0.8,0.10,-811.0,2.494,90639.195,930.346,2.500,90639.31,930.479,15789,-9.316,930.479,-113780240.0,-3.425,2.114,0.0,0.0,0.0,4.253,-5.588
15832,2,15832,43,-9.581,-1.956,-9.290,81.838,32.356,30.5,0.13,0.17,0.4,-811.0,-9.511,-1.938,-9.264,82.242,32.373,29.874,0.16,0.24,0.5,-811.0,2.493,90638.328,930.546,2.482,90634.656,931.184,15832,-9.290,931.184,-114180280.0,16.382,1.670,0.0,0.0,0.0,4.253,-5.573
15868,2,15868,36,-9.548,-1.968,-9.275,81.926,32.481,29.929,0.14,0.21,0.2,-811.0,-9.489,-1.988,-9.257,82.271,32.607,29.596,0.17,0.26,0.4,-811.0,2.491,90637.898,930.705,2.491,90637.898,930.681,15868,-9.275,930.681,-114514472.0,-13.958,2.720,0.0,0.0,0.0,4.253,-5.564
15910,2,15910,42,-9.521,-1.961,-9.285,81.926,32.484,29.827,0.14,0.20,0.4,-811.0,-9.497,-1.902,-9.357,81.745,32.344,29.538,0.10,0.17,0.8,-811.0,2.488,90637.906,930.664,2.477,90642.335,930.282,15910,-9.285,930.282,-114904272.0,-9.512,2.399,0.0,0.0,0.0,4.253,-5.570
15946,2,15946,36,-9.530,-1.969,-9.297,82.92,32.496,29.742,0.14,0.20,0.8,-811.0,-9.547,-2.53,-9.250,82.52,32.636,29.421,0.15,0.24,0.11,-811.0,2.487,90638.578,930.683,2.486,90638.976,930.790,15946,-9.297,930.790,-115238776.0,14.124,1.702,0.0,0.0,0.0,4.253,-5.577
15989,2,15989,43,-9.524,-1.936,-9.261,81.981,32.449,29.628,0.13,0.20,0.8,-811.0,-9.576,-1.801,-9.178,81.598,32.285,29.713,0.6,0.10,0.10,-811.0,2.485,90637.914,930.604,2.491,90635.679,930.80,15989,-9.261,930.80,-115637792.0,-16.522,2.982,0.0,0.0,0.0,4.253,-5.556
16025,2,16025,36,-9.541,-1.919,-9.271,81.677,32.464,29.608,0.13,0.18,0.7,-811.0,-9.597,-1.852,-9.314,80.722,32.446,29.771,0.15,0.15,0.2,-811.0,2.486,90637.890,930.524,2.486,90634.539,930.785,16025,-9.271,930.785,-115971392.0,19.582,1.629,0.0,0.0,0.0,4.253,-5.562
16071,2,16071,46,-9.573,-1.897,-9.283,81.496,32.566,29.690,0.12,0.18,0.5,-811.0,-9.647,-1.880,-9.314,81.365,33.118,30.5,0.12,0.24,0.5,-811.0,2.485,90638.109,930.465,2.486,90639.31,930.386,16071,-9.283,930.386,-116398152.0,-8.673,2.351,0.0,0.0,0.0,4.253,-5.568
16107,2,16107,36,-9.576,-1.900,-9.267,81.379,32.703,29.722,0.13,0.18,0.4,-811.0,-9.511,-1.916,-9.278,81.160,33.31,29.698,0.15,0.14,0.4,-811.0,2.487,90637.671,930.505,2.486,90640.117,930.484,16107,-9.267,930.484,-116732056.0,2.736,1.924,0.0,0.0,0.0,4.253,-5.559
16151,2,16151,44,-9.555,-1.859,-9.271,81.274,32.695,29.812,0.12,0.16,0.2,-811.0,-9.446,-1.844,-9.271,81.525,32.592,29.874,0.12,0.14,0.3,-811.0,2.489,90637.890,930.423,2.495,90640.117,930.380,16151,-9.271,930.380,-117139912.0,-2.363,2.76,0.0,0.0,0.0,4.253,-5.562
16187,2,16187,36,-9.518,-1.883,-9.290,81.344,32.852,29.850,0.14,0.18,0.1,-811.0,-9.389,-1.923,-9.271,81.949,33.75,29.903,0.15,0.21,0.3,-811.0,2.489,90639.210,930.524,2.491,90642.273,930.582,16187,-9.290,930.582,-117474024.0,5.610,1.855,0.0,0.0,0.0,4.253,-5.573
16229,2,16229,42,-9.510,-1.900,-9.278,81.601,32.905,29.827,0.13,0.18,0.1,-811.0,-9.554,-1.938,-9.257,82.8,32.709,29.655,0.12,0.15,0.3,-811.0,2.489,90639.234,930.402,2.486,90634.593,930.178,16229,-9.278,930.178,-117863976.0,-9.630,2.406,0.0,0.0,0.0,4.253,-5.566
16293,2,16293,64,-9.489,-1.899,-9.275,81.727,32.896,29.836,0.13,0.16,0.3,-811.0,-9.547,-1.873,-9.300,81.993,33.75,30.49,0.14,0.17,0.1,-811.0,2.489,90638.367,930.379,2.486,90634.710,930.271,16293,-9.275,930.271,-118457728.0,1.461,1.957,0.0,0.0,0.0,4.253,-5.564
16334,2,16334,41,-9.492,-1.908,-9.250,81.867,32.975,29.921,0.13,0.17,0.2,-811.0,-9.525,-1.959,-9.149,81.862,33.425,30.122,0.12,0.17,0.0,-811.0,2.485,90637.500,930.438,2.468,90635.796,930.779,16334,-9.250,930.779,-118837512.0,12.388,1.729,0.0,0.0,0.0,4.253,-5.549
16370,2,16370,36,-9.502,-1.913,-9.245,81.926,33.63,29.862,0.13,0.17,0.2,-811.0,-9.497,-1.873,-9.250,81.818,33.31,29.581,0.14,0.16,0.0,-811.0,2.482,90635.960,930.497,2.477,90632.437,930.675,16370,-9.245,930.675,-119170440.0,-2.888,2.94,0.0,0.0,0.0,4.253,-5.546
16413,2,16413,43,-9.531,-1.918,-9.219,81.847,32.972,29.847,0.13,0.16,0.1,-811.0,-9.533,-1.945,-9.142,81.555,32.622,29.830,0.14,0.16,0.2,-811.0,2.479,90634.437,930.396,2.477,90634.656,930.75,16413,-9.219,930.75,-119567456.0,-13.962,2.720,0.0,0.0,0.0,4.253,-5.531
16449,2,16449,36,-9.528,-1.906,-9.232,81.900,33.40,29.748,0.13,0.17,0.1,-811.0,-9.540,-1.880,-9.321,82.271,33.45,29.158,0.13,0.20,0.4,-811.0,2.477,90633.343,930.497,2.477,90629.78,930.681,16449,-9.232,930.681,-119899608.0,16.845,1.664,0.0,0.0,0.0,4.253,-5.538
16491,2,16491,42,-9.528,-1.916,-9.227,81.733,33.57,29.678,0.13,0.17,0.2,-811.0,-9.547,-1.923,-9.271,81.160,33.162,29.698,0.13,0.18,0.2,-811.0,2.476,90632.875,930.538,2.482,90632.375,930.479,16491,-9.227,930.479,-120287264.0,-4.808,2.168,0.0,0.0,0.0,4.253,-5.535
16528,2,16528,37,-9.521,-1.909,-9.242,81.634,32.955,29.704,0.13,0.18,0.2,-811.0,-9.489,-1.923,-9.228,81.365,32.914,30.254,0.13,0.19,0.2,-811.0,2.478,90633.734,930.478,2.477,90640.117,930.479,16528,-9.242,930.479,-120628960.0,0.0,2.0,0.0,0.0,0.0,4.253,-5.544
16571,2,16571,43,-9.524,-1.922,-9.240,81.566,32.975,29.959,0.13,0.17,0.3,-811.0,-9.511,-1.938,-9.235,81.482,33.133,30.853,0.12,0.14,0.5,-811.0,2.480,90634.609,930.400,2.486,90636.812,930.282,16571,-9.240,930.282,-121026344.0,-4.594,2.159,0.0,0.0,0.0,4.253,-5.543
16607,2,16607,36,-9.527,-1.918,-9.267,81.508,33.162,30.11,0.13,0.18,0.4,-811.0,-9.547,-1.923,-9.278,81.262,33.557,30.93,0.13,0.18,0.7,-811.0,2.482,90634.812,930.442,2.486,90635.679,930.287,16607,-9.267,930.287,-121359480.0,0.137,1.995,0.0,0.0,0.0,4.260,-5.559
16649,2,16649,42,-9.525,-1.915,-9.250,81.429,33.194,30.184,0.12,0.17,0.3,-811.0,-9.533,-1.866,-9.235,81.876,33.206,30.20,0.12,0.18,0.0,-811.0,2.483,90636.796,930.543,2.486,90638.976,931.189,16649,-9.250,931.189,-121748344.0,21.477,1.608,0.0,0.0,0.0,4.253,-5.549
16685,2,16685,36,-9.517,-1.910,-9.235,81.508,33.288,30.301,0.11,0.16,0.4,-811.0,-9.504,-1.902,-9.199,81.555,33.630,30.283,0.8,0.13,0.4,-811.0,2.484,90637.453,930.565,2.486,90635.679,930.588,16685,-9.235,930.588,-122081088.0,-16.694,3.3,0.0,0.0,0.0,4.253,-5.540
16728,2,16728,43,-9.534,-1.897,-9.232,81.680,33.215,30.230,0.12,0.16,0.4,-811.0,-9.576,-1.859,-9.214,82.227,32.548,29.903,0.15,0.17,0.5,-811.0,2.486,90637.671,930.545,2.486,90641.195,930.380,16728,-9.232,930.380,-122478160.0,-4.824,2.169,0.0,0.0,0.0,4.253,-5.538
16764,2,16764,36,-9.541,-1.897,-9.247,81.625,33.189,29.982,0.12,0.17,0.4,-811.0,-9.547,-1.938,-9.307,81.204,33.2,29.611,0.14,0.20,0.4,-811.0,2.486,90637.0,930.586,2.486,90633.460,930.484,16764,-9.247,930.484,-122810800.0,2.888,1.920,0.0,0.0,0.0,4.253,-5.547
16834,2,16834,70,-9.528,-1.887,-9.234,81.636,33.145,29.979,0.12,0.17,0.4,-811.0,-9.482,-1.873,-9.214,81.321,33.338,30.78,0.12,0.15,0.5,-811.0,2.486,90637.15,930.583,2.486,90635.796,930.271,16834,-9.234,930.271,-123457656.0,-3.42,2.100,0.0,0.0,0.0,4.260,-5.539
16871,2,16871,37,-9.512,-1.890,-9.229,81.593,33.130,29.961,0.12,0.16,0.5,-811.0,-9.454,-1.880,-9.214,81.657,33.133,29.932,0.12,0.16,0.9,-811.0,2.482,90636.390,930.419,2.468,90635.796,930.370,16871,-9.229,930.370,-123799248.0,2.662,1.926,0.0,0.0,0.0,4.253,-5.537
16912,2,16912,41,-9.548,-1.899,-9.237,81.569,33.80,29.777,0.12,0.16,0.6,-811.0,-9.683,-1.945,-9.235,81.438,33.382,29.362,0.9,0.12,0.8,-811.0,2.480,90635.726,930.356,2.472,90632.375,930.271,16912,-9.237,930.271,-124177824.0,-2.402,2.77,0.0,0.0,0.0,4.253,-5.541
16948,2,16948,36,-9.652,-1.959,-9.270,81.537,33.192,29.660,0.11,0.14,0.7,-811.0,-10.92,-2.160,-9.379,82.66,33.104,29.318,0.9,0.6,0.7,-811.0,2.477,90635.757,930.335,2.472,90641.312,930.277,16948,-9.270,930.277,-124510960.0,0.152,1.995,0.0,0.0,0.0,4.253,-5.561
16992,2,16992,44,-9.649,-1.936,-9.257,81.572,33.174,29.888,0.13,0.15,0.6,-811.0,-9.533,-1.823,-9.242,81.379,32.914,30.751,0.22,0.26,0.0,-811.0,2.474,90635.765,930.211,2.472,90633.515,929.867,16992,-9.257,929.867,-124918560.0,-9.317,2.387,0.0,0.0,0.0,4.253,-5.553
17028,2,17028,36,-9.670,-1.941,-9.271,81.718,33.110,29.918,0.13,0.16,0.5,-804.599,-9.590,-1.895,-9.285,82.52,33.16,30.225,0.16,0.19,0.0,-779.0,2.473,90636.851,930.152,2.482,90641.250,929.976,17028,-9.271,929.976,-125252080.0,3.26,1.916,0.0,0.0,0.0,4.253,-5.562
17070,2,17070,42,-9.682,-1.936,-9.277,81.750,33.51,29.868,0.15,0.17,0.4,-804.599,-9.511,-1.859,-9.242,81.818,32.841,29.684,0.17,0.20,0.7,-811.0,2.476,90637.62,930.233,2.482,90636.875,930.774,17070,-9.277,930.774,-125641608.0,18.999,1.636,0.0,0.0,0.0,4.253,-5.565
17106,2,17106,36,-9.640,-1.935,-9.281,81.645,32.908,29.956,0.16,0.18,0.3,-804.599,-9.475,-1.938,-9.257,80.912,32.665,29.801,0.16,0.20,0.0,-811.0,2.476,90639.500,930.72,2.472,90644.554,929.468,17106,-9.281,929.468,-125975672.0,-36.288,-10.278,0.0,0.0,0.0,4.253,-5.568
17149,2,17149,43,-9.558,-1.880,-9.273,81.593,32.879,30.64,0.16,0.20,0.1,-804.599,-9.683,-1.887,-9.336,81.803,32.958,29.859,0.12,0.16,0.0,-811.0,2.477,90640.601,930.152,2.477,90646.828,930.675,17149,-9.273,930.675,-126374600.0,28.90,1.542,0.0,0.0,0.0,4.253,-5.562
17185,2,17185,36,-9.564,-1.909,-9.281,81.648,32.882,29.970,0.15,0.21,0.0,-804.599,-9.561,-1.966,-9.285,81.657,32.928,30.283,0.14,0.29,0.5,-811.0,2.477,90640.164,930.395,2.472,90631.296,931.80,17185,-9.281,931.80,-126708584.0,11.235,1.747,0.0,0.0,0.0,4.260,-5.568
17227,2,17227,42,-9.567,-1.916,-9.271,81.549,32.814,29.985,0.14,0.21,0.0,-811.0,-9.604,-1.931,-9.235,81.555,32.680,30.298,0.11,0.20,0.0,-811.0,2.475,90639.289,930.434,2.472,90636.875,930.173,17227,-9.271,930.173,-127098200.0,-21.593,3.839,0.0,0.0,0.0,4.253,-5.562
17263,2,17263,36,-9.587,-1.920,-9.288,81.552,32.867,30.17,0.13,0.20,0.1,-811.0,-9.611,-1.880,-9.329,81.832,33.104,29.845,0.14,0.14,0.1,-811.0,2.472,90639.726,930.294,2.468,90639.93,930.75,17263,-9.288,930.75,-127432288.0,-2.721,2.88,0.0,0.0,0.0,4.253,-5.572
17306,2,17306,43,-9.599,-1.908,-9.290,81.701,32.730,29.979,0.12,0.18,0.0,-811.0,-9.533,-1.873,-9.264,81.657,31.978,29.611,0.10,0.11,0.4,-811.0,2.473,90638.187,930.495,2.477,90636.875,930.473,17306,-9.290,930.473,-127831736.0,9.265,1.782,0.0,0.0,0.0,4.260,-5.573
17363,2,17363,57,-9.435,-1.953,-9.205,81.704,32.619,30.5,0.14,0.26,0.0,-811.0,-8.865,-2.117,-8.912,81.818,32.402,29.991,0.19,0.54,0.6,-811.0,2.472,90636.437,930.414,2.472,90638.70,930.267,17363,-9.205,930.267,-128358864.0,-3.629,2.122,0.0,0.0,0.0,4.253,-5.522
17399,2,17399,36,-9.465,-1.986,-9.204,81.607,32.560,30.14,0.13,0.21,0.6,-811.0,-9.712,-2.132,-9.278,81.175,32.636,30.327,0.9,0.6,0.23,-811.0,2.470,90638.15,930.252,2.459,90639.148,930.271,17399,-9.204,930.271,-128690240.0,0.137,1.995,0.0,0.0,0.0,4.260,-5.521
17443,2,17443,44,-9.487,-2.20,-9.181,81.692,32.569,29.918,0.14,0.22,0.5,-811.0,-9.712,-2.96,-9.120,81.978,32.724,29.815,0.17,0.24,0.5,-811.0,2.466,90638.250,930.271,2.454,90638.70,930.267,17443,-9.181,930.267,-129094720.0,0.112,2.3,0.0,0.0,0.0,4.253,-5.507
17479,2,17479,36,-9.510,-2.74,-9.191,81.680,32.581,29.903,0.12,0.22,0.5,-811.0,-9.726,-2.153,-9.379,81.774,33.162,29.771,0.6,0.15,0.2,-811.0,2.466,90637.828,930.310,2.468,90636.992,930.271,17479,-9.191,930.271,-129425424.0,0.137,1.995,0.0,0.0,0.0,4.253,-5.513
17521,2,17521,42,-9.459,-2.57,-9.192,81.797,32.668,30.58,0.13,0.24,0.5,-811.0,-9.281,-1.787,-9.271,82.242,32.417,30.385,0.15,0.21,0.6,-811.0,2.463,90638.953,930.370,2.463,90642.507,930.774,17521,-9.192,930.774,-129811488.0,11.962,1.735,0.0,0.0,0.0,4.253,-5.514
17558,2,17558,37,-9.594,-2.1,-9.267,81.862,32.794,30.166,0.12,0.18,0.2,-811.0,-9.540,-1.837,-9.285,82.139,33.31,30.532,0.12,0.23,0.7,-811.0,2.462,90638.507,930.350,2.468,90635.796,930.167,17558,-9.267,930.167,-130153000.0,-16.390,2.967,0.0,0.0,0.0,4.253,-5.559
17601,2,17601,43,-9.560,-1.956,-9.261,81.981,32.876,30.195,0.12,0.20,0.2,-811.0,-9.540,-1.909,-9.250,81.774,33.45,30.473,0.10,0.18,0.1,-811.0,2.464,90638.500,930.410,2.468,90639.148,930.571,17601,-9.261,930.571,-130551368.0,9.393,1.780,0.0,0.0,0.0,4.260,-5.556
17637,2,17637,36,-9.533,-1.925,-9.291,81.902,32.928,30.248,0.11,0.18,0.0,-811.0,-9.576,-1.938,-9.271,81.584,32.987,30.78,0.12,0.11,0.1,-811.0,2.467,90638.265,930.390,2.468,90636.875,930.167,17637,-9.291,930.167,-130885328.0,-11.220,2.507,0.0,0.0,0.0,4.253,-5.574
17679,2,17679,42,-9.484,-1.885,-9.263,81.809,33.45,30.289,0.13,0.19,0.1,-811.0,-9.482,-1.952,-9.235,81.306,33.747,29.976,0.16,0.20,0.9,-811.0,2.466,90638.250,930.450,2.463,90636.929,930.571,17679,-9.263,930.571,-131274976.0,9.617,1.776,0.0,0.0,0.0,4.253,-5.556
17715,2,17715,36,-9.564,-1.906,-9.264,81.613,33.151,30.330,0.14,0.16,0.2,-811.0,-9.683,-1.895,-9.278,81.262,32.943,30.590,0.19,0.7,0.13,-811.0,2.467,90634.476,930.551,2.468,90623.617,931.277,17715,-9.264,931.277,-131608472.0,19.612,1.629,0.0,0.0,0.0,4.253,-5.557
17758,2,17758,43,-9.571,-1.928,-9.285,81.411,33.156,30.283,0.14,0.15,0.4,-811.0,-9.576,-1.945,-9.393,81.131,33.60,30.298,0.15,0.20,0.0,-811.0,2.467,90634.46,930.611,2.468,90633.632,930.468,17758,-9.285,930.468,-132007304.0,-18.813,3.295,0.0,0.0,0.0,4.253,-5.570
17794,2,17794,36,-9.576,-1.939,-9.303,81.292,33.124,30.219,0.15,0.15,0.5,-811.0,-9.561,-1.966,-9.336,81.175,32.885,30.152,0.14,0.16,0.3,-811.0,2.464,90633.171,930.589,2.454,90634.773,930.462,17794,-9.303,930.462,-132341912.0,0.167,2.5,0.0,0.0,0.0,4.253,-5.580
17836,2,17836,42,-9.564,-1.942,-9.303,81.233,33.95,30.210,0.15,0.16,0.5,-811.0,-9.518,-1.952,-9.271,81.292,32.841,30.35,0.11,0.14,0.0,-811.0,2.463,90632.953,930.589,2.463,90635.796,930.167,17836,-9.303,930.167,-132732648.0,-7.23,2.266,0.0,0.0,0.0,4.253,-5.580
17900,2,17900,64,-9.633,-1.948,-9.400,81.274,32.829,30.239,0.12,0.11,0.9,-811.0,-9.827,-1.981,-9.723,81.511,32.417,30.122,0.1,0.1,0.30,-811.0,2.460,90632.531,930.567,2.449,90634.828,930.457,17900,-9.400,930.457,-133331176.0,4.530,1.880,0.0,0.0,0.0,4.253,-5.639
17941,2,17941,41,-9.715,-2.17,-9.423,81.245,32.706,30.198,0.10,0.14,0.5,-811.0,-10.92,-2.239,-9.393,81.116,32.329,30.385,0.7,0.19,0.4,-811.0,2.455,90635.656,930.424,2.440,90639.265,930.562,17941,-9.423,930.562,-133717080.0,2.538,1.929,0.0,0.0,0.0,4.253,-5.653
17977,2,17977,36,-9.729,-2.50,-9.408,81.400,32.668,30.160,0.8,0.12,0.4,-811.0,-9.647,-2.110,-9.314,81.905,32.870,30.108,0.6,0.14,0.7,-811.0,2.449,90635.671,930.422,2.440,90633.687,930.462,17977,-9.408,930.462,-134056056.0,-2.751,2.89,0.0,0.0,0.0,4.260,-5.643
18021,2,18021,44,-9.811,-2.17,-9.346,81.446,32.645,30.219,0.8,0.13,0.2,-811.0,-9.970,-1.801,-9.27,81.408,32.768,30.444,0.14,0.18,0.6,-811.0,2.447,90637.15,930.442,2.445,90641.484,930.562,18021,-9.346,930.562,-134468656.0,2.251,1.936,0.0,0.0,0.0,4.247,-5.606
18057,2,18057,36,-9.798,-1.984,-9.293,81.563,32.546,30.280,0.9,0.15,0.0,-811.0,-9.454,-1.787,-9.6,81.876,32.344,30.342,0.15,0.26,0.8,-811.0,2.445,90638.359,930.642,2.449,90642.562,931.169,18057,-9.293,931.169,-134804160.0,16.860,1.664,0.0,0.0,0.0,4.253,-5.574
18100,2,18100,43,-9.768,-2.9,-9.214,81.563,32.616,30.327,0.9,0.17,0.2,-811.0,-9.676,-2.110,-9.329,81.511,32.768,30.356,0.5,0.6,0.14,-811.0,2.445,90638.140,930.804,2.449,90633.687,931.266,18100,-9.214,931.266,-135202064.0,2.278,1.936,0.0,0.0,0.0,4.253,-5.527
18137,2,18137,37,-9.636,-1.938,-9.199,81.604,32.724,30.324,0.10,0.15,0.0,-811.0,-9.432,-1.880,-9.321,81.321,32.870,30.371,0.7,0.12,0.10,-811.0,2.445,90638.351,930.724,2.440,90640.343,930.163,18137,-9.199,930.163,-135542720.0,-29.836,10.531,0.0,0.0,0.0,4.253,-5.518
18179,2,18179,42,-9.666,-1.995,-9.212,81.549,32.700,30.344,0.11,0.17,0.12,-811.0,-9.798,-2.397,-9.379,81.628,32.753,30.210,0.12,0.20,0.72,-811.0,2.447,90639.15,930.744,2.449,90636.992,930.562,18179,-9.212,930.562,-135929392.0,9.499,1.778,0.0,0.0,0.0,4.253,-5.526
18215,2,18215,36,-9.660,-2.87,-9.308,81.558,32.616,30.450,0.10,0.16,0.10,-811.0,-9.942,-2.261,-9.508,81.452,32.344,30.970,0.8,0.14,0.4,-811.0,2.447,90638.789,930.724,2.449,90640.343,930.462,18215,-9.308,930.462,-136262784.0,-2.751,2.89,0.0,0.0,0.0,4.253,-5.584
18257,2,18257,42,-9.718,-2.143,-9.369,81.391,32.680,30.391,0.10,0.15,0.8,-811.0,-9.741,-2.67,-9.307,81.43,32.665,30.49,0.20,0.23,0.2,-811.0,2.446,90637.250,930.623,2.440,90634.890,930.660,18257,-9.369,930.660,-136655024.0,4.702,1.876,0.0,0.0,0.0,4.260,-5.620
18293,2,18293,36,-9.679,-2.12,-9.304,81.315,32.651,30.263,0.13,0.18,0.12,-811.0,-9.482,-1.457,-9.6,81.131,32.622,29.713,0.17,0.22,0.7,-811.0,2.445,90637.914,930.522,2.445,90636.992,930.764,18293,-9.304,930.764,-136991152.0,2.890,1.920,0.0,0.0,0.0,4.253,-5.581
18336,2,18336,43,-9.683,-1.981,-9.277,81.353,32.592,30.295,0.13,0.15,0.10,-811.0,-9.454,-1.722,-9.185,81.511,32.578,30.532,0.9,0.3,0.24,-811.0,2.446,90635.921,930.601,2.445,90630.390,930.556,18336,-9.277,930.556,-137390672.0,-4.838,2.169,0.0,0.0,0.0,4.253,-5.565
18398,2,18398,62,-9.659,-1.883,-9.264,81.262,32.601,30.210,0.14,0.17,0.1,-811.0,-9.676,-1.909,-9.314,81.175,32.797,29.786,0.18,0.32,0.14,-811.0,2.444,90635.968,930.497,2.440,90637.218,930.43,18398,-9.264,930.43,-137965472.0,-8.281,2.330,0.0,0.0,0.0,4.260,-5.557
18440,2,18440,42,-9.576,-1.790,-9.222,81.37,32.738,29.941,0.16,0.20,0.1,-811.0,-9.525,-1.794,-9.300,80.327,33.31,29.625,0.15,0.25,0.0,-811.0,2.440,90635.773,930.373,2.431,90639.382,929.841,18440,-9.222,929.841,-138353696.0,-4.808,2.168,0.0,0.0,0.0,4.260,-5.532
18476,2,18476,36,-9.538,-1.748,-9.225,81.40,32.674,29.885,0.14,0.17,0.1,-811.0,-9.554,-1.859,-9.321,81.58,32.344,29.771,0.10,0.11,0.5,-811.0,2.437,90635.351,930.310,2.426,90632.781,930.348,18476,-9.225,930.348,-138685776.0,14.109,1.702,0.0,0.0,0.0,4.253,-5.534
18518,2,18518,42,-9.558,-1.856,-9.280,81.37,32.689,29.976,0.12,0.16,0.5,-811.0,-9.583,-1.995,-9.278,81.116,32.695,30.166,0.8,0.16,0.10,-811.0,2.433,90633.625,930.307,2.422,90628.343,930.747,18518,-9.280,930.747,-139074400.0,9.499,1.778,0.0,0.0,0.0,4.253,-5.567
18554,2,18554,36,-9.512,-1.899,-9.316,80.988,32.741,29.807,0.13,0.22,0.2,-811.0,-9.224,-1.938,-9.364,81.262,32.841,29.684,0.12,0.25,0.7,-811.0,2.429,90634.85,930.326,2.426,90632.726,930.650,18554,-9.316,930.650,-139409136.0,-2.721,2.88,0.0,0.0,0.0,4.253,-5.588
18598,2,18598,44,-9.472,-1.895,-9.297,80.897,32.727,29.839,0.11,0.18,0.6,-804.599,-9.475,-1.887,-9.221,80.722,32.724,29.947,0.8,0.14,0.7,-779.0,2.428,90633.632,930.468,2.435,90634.945,930.753,18598,-9.297,930.753,-139818640.0,2.351,1.934,0.0,0.0,0.0,4.253,-5.577
18634,2,18634,36,-9.421,-1.922,-9.258,80.993,32.686,29.985,0.9,0.13,0.8,-804.599,-9.267,-1.931,-9.106,80.809,32.826,30.356,0.5,0.0,0.13,-811.0,2.426,90632.976,930.569,2.422,90636.85,930.348,18634,-9.258,930.348,-140152656.0,-11.235,2.508,0.0,0.0,0.0,4.253,-5.554
18681,2,18681,47,-9.439,-1.896,-9.215,80.903,32.850,30.23,0.9,0.13,0.9,-804.599,-9.647,-1.730,-9.106,80.605,33.162,29.961,0.10,0.14,0.10,-811.0,2.427,90632.750,930.568,2.431,90631.648,930.343,18681,-9.215,930.343,-140586800.0,0.116,2.3,0.0,0.0,0.0,4.253,-5.528
18717,2,18717,36,-9.425,-1.856,-9.232,80.780,32.820,30.172,0.10,0.15,0.6,-804.599,-9.511,-1.794,-9.364,80.502,32.548,30.912,0.16,0.23,0.4,-811.0,2.428,90634.515,930.508,2.426,90637.164,930.447,18717,-9.232,930.447,-140918880.0,2.888,1.920,0.0,0.0,0.0,4.253,-5.538
18761,2,18761,44,-9.432,-1.833,-9.159,80.698,32.814,30.388,0.11,0.15,0.4,-804.599,-9.260,-1.823,-8.998,80.853,32.812,30.765,0.14,0.27,0.4,-811.0,2.428,90635.617,930.388,2.426,90638.242,930.47,18761,-9.159,930.47,-141323520.0,-9.80,2.374,0.0,0.0,0.0,4.253,-5.494
18797,2,18797,36,-9.458,-1.869,-9.184,80.660,32.885,30.438,0.12,0.16,0.2,-811.0,-9.604,-2.67,-9.343,80.532,33.75,30.195,0.14,0.19,0.0,-811.0,2.424,90635.187,930.346,2.417,90632.781,930.546,18797,-9.184,930.546,-141653712.0,13.834,1.706,0.0,0.0,0.0,4.260,-5.509
18839,2,18839,42,-9.547,-1.863,-9.238,80.608,32.928,30.438,0.14,0.20,0.0,-811.0,-9.712,-1.902,-9.379,80.546,33.45,30.356,0.14,0.18,0.3,-811.0,2.424,90635.187,930.386,2.417,90636.85,930.546,18839,-9.238,930.546,-142040592.0,0.0,2.0,0.0,0.0,0.0,4.253,-5.542
18902,2,18902,63,-9.527,-1.867,-9.248,80.716,32.908,30.678,0.15,0.22,0.0,-811.0,-9.547,-1.751,-9.156,81.145,33.60,31.160,0.18,0.24,0.6,-811.0,2.423,90636.968,930.385,2.426,90640.578,930.338,18902,-9.248,930.338,-142622944.0,-3.292,2.109,0.0,0.0,0.0,4.253,-5.548
18944,2,18944,42,-9.528,-1.872,-9.191,80.859,32.984,30.608,0.15,0.20,0.1,-811.0,-9.518,-1.816,-9.77,81.218,32.928,30.561,0.17,0.13,0.2,-811.0,2.419,90637.656,930.444,2.408,90640.578,930.743,18944,-9.191,930.743,-143010176.0,9.630,1.775,0.0,0.0,0.0,4.253,-5.513
18980,2,18980,36,-9.573,-1.876,-9.238,80.932,33.89,30.581,0.15,0.17,0.4,-811.0,-9.482,-1.844,-9.235,81.218,33.338,30.634,0.12,0.11,0.12,-811.0,2.413,90637.453,930.463,2.399,90637.218,930.141,18980,-9.238,930.141,-143341920.0,-16.708,3.5,0.0,0.0,0.0,4.253,-5.542
19023,2,19023,43,-9.551,-1.839,-9.204,80.979,33.89,30.663,0.14,0.16,0.6,-811.0,-9.497,-1.880,-9.171,80.765,33.75,30.605,0.12,0.12,0.6,-811.0,2.413,90637.7,930.503,2.417,90630.562,930.747,19023,-9.204,930.747,-143738432.0,14.103,1.702,0.0,0.0,0.0,4.253,-5.521
19059,2,19059,36,-9.531,-2.189,-9.165,81.81,33.66,30.675,0.14,0.15,0.6,-811.0,-9.611,-3.653,-9.185,81.58,32.928,30.415,0.13,0.16,0.7,-811.0,2.413,90637.226,930.544,2.417,90637.218,930.753,19059,-9.165,930.753,-144069088.0,0.152,1.995,0.0,0.0,0.0,4.253,-5.498
19101,2,19101,42,-9.501,-2.195,-9.172,81.26,33.51,30.543,0.13,0.13,0.5,-811.0,-9.396,-1.780,-9.192,80.868,32.987,30.502,0.12,0.16,0.1,-811.0,2.412,90637.226,930.505,2.422,90640.523,930.141,19101,-9.172,930.141,-144454192.0,-14.569,2.776,0.0,0.0,0.0,4.253,-5.502
19138,2,19138,37,-9.507,-2.187,-9.192,80.926,33.69,30.482,0.13,0.16,0.4,-811.0,-9.547,-1.780,-9.178,80.722,33.16,30.254,0.16,0.24,0.2,-811.0,2.415,90636.304,930.466,2.422,90636.23,930.546,19138,-9.192,930.546,-144793952.0,10.931,1.753,0.0,0.0,0.0,4.253,-5.514
19180,2,19180,42,-9.494,-2.187,-9.175,80.900,33.16,30.365,0.13,0.19,0.0,-811.0,-9.418,-1.844,-9.149,81.87,33.75,30.49,0.15,0.27,0.7,-811.0,2.421,90635.859,930.527,2.426,90634.945,930.447,19180,-9.175,930.447,-145179680.0,-2.345,2.75,0.0,0.0,0.0,4.253,-5.504
19216,2,19216,36,-9.522,-2.200,-9.214,80.917,32.984,30.289,0.13,0.18,0.0,-811.0,-9.640,-1.945,-9.364,80.853,32.914,30.225,0.9,0.8,0.4,-811.0,2.422,90637.171,930.548,2.422,90637.164,930.851,19216,-9.214,930.851,-145510688.0,11.235,1.747,0.0,0.0,0.0,4.253,-5.527
19258,2,19258,42,-9.554,-1.864,-9.248,80.897,32.993,30.266,0.13,0.18,0.1,-811.0,-9.769,-1.974,-9.357,80.955,32.972,30.298,0.16,0.17,0.4,-811.0,2.424,90637.609,930.366,2.431,90639.382,929.846,19258,-9.248,929.846,-145898400.0,-23.951,4.553,0.0,0.0,0.0,4.260,-5.548
19294,2,19294,36,-9.593,-1.889,-9.265,80.824,33.86,30.216,0.13,0.18,0.1,-804.599,-9.590,-1.902,-9.278,80.502,33.455,30.254,0.10,0.15,0.2,-779.0,2.424,90636.492,930.407,2.422,90634.945,930.343,19294,-9.265,930.343,-146231664.0,13.819,1.706,0.0,0.0,0.0,4.253,-5.558
19337,2,19337,43,-9.571,-1.903,-9.277,80.914,33.72,30.210,0.14,0.19,0.0,-804.599,-9.439,-1.852,-9.235,81.175,32.943,30.225,0.19,0.29,0.4,-811.0,2.426,90635.625,930.588,2.431,90631.703,931.453,19337,-9.277,931.453,-146630336.0,25.815,1.563,0.0,0.0,0.0,4.260,-5.565
19373,2,19373,36,-9.583,-1.889,-9.306,80.917,33.139,30.242,0.14,0.18,0.1,-804.599,-9.475,-1.773,-9.293,81.102,33.411,30.210,0.17,0.23,0.2,-811.0,2.425,90634.960,930.648,2.422,90631.648,930.747,19373,-9.306,930.747,-146964832.0,-19.599,3.427,0.0,0.0,0.0,4.253,-5.582
19443,2,19443,70,-9.557,-1.867,-9.275,81.26,33.136,30.198,0.15,0.20,0.1,-804.599,-9.511,-1.837,-9.214,81.394,32.899,30.5,0.12,0.15,0.10,-811.0,2.425,90634.109,930.483,2.422,90632.898,930.27,19443,-9.275,930.27,-147615200.0,-10.290,2.446,0.0,0.0,0.0,4.253,-5.564
19484,2,19484,41,-9.515,-1.854,-9.278,81.26,33.154,30.122,0.15,0.22,0.2,-804.599,-9.561,-1.909,-9.372,80.955,33.60,29.918,0.14,0.29,0.10,-811.0,2.419,90633.921,930.682,2.399,90638.414,930.841,19484,-9.278,930.841,-147995568.0,19.851,1.626,0.0,0.0,0.0,4.260,-5.566
19520,2,19520,36,-9.580,-1.860,-9.298,81.40,33.136,30.99,0.16,0.22,0.0,-811.0,-9.913,-1.931,-9.379,80.575,33.367,30.137,0.16,0.13,0.12,-811.0,2.416,90634.171,930.701,2.408,90636.195,930.437,19520,-9.298,930.437,-148329968.0,-11.235,2.508,0.0,0.0,0.0,4.253,-5.578
19563,2,19563,43,-9.590,-1.886,-9.277,81.17,33.159,30.90,0.14,0.18,0.1,-811.0,-9.489,-1.981,-9.128,81.58,33.60,30.181,0.12,0.10,0.11,-811.0,2.412,90634.398,930.578,2.408,90632.843,930.836,19563,-9.277,930.836,-148729360.0,9.291,1.782,0.0,0.0,0.0,4.247,-5.565
19600,2,19600,37,-9.568,-1.899,-9.260,81.17,33.110,30.8,0.14,0.19,0.0,-811.0,-9.367,-1.837,-9.207,81.102,33.162,29.801,0.16,0.28,0.8,-811.0,2.411,90634.414,930.577,2.417,90631.703,930.743,19600,-9.260,930.743,-149072304.0,-2.528,2.82,0.0,0.0,0.0,4.260,-5.555
19642,2,19642,42,-9.568,-1.899,-9.251,80.961,32.996,29.991,0.15,0.21,0.0,-811.0,-9.511,-1.837,-9.171,81.116,32.329,29.918,0.20,0.25,0.8,-811.0,2.409,90635.945,930.659,2.412,90640.578,930.437,19642,-9.251,930.437,-149461056.0,-7.284,2.279,0.0,0.0,0.0,4.260,-5.549
19678,2,19678,36,-9.576,-1.925,-9.238,81.14,32.946,30.137,0.15,0.20,0.2,-811.0,-9.597,-2.38,-9.307,81.218,32.812,30.648,0.14,0.25,0.6,-811.0,2.412,90635.46,930.598,2.412,90633.921,930.541,19678,-9.238,930.541,-149793872.0,2.888,1.920,0.0,0.0,0.0,4.253,-5.542
19721,2,19721,43,-9.512,-1.915,-9.222,81.84,32.996,30.128,0.14,0.22,0.0,-811.0,-9.597,-1.880,-9.300,80.926,33.615,30.93,0.8,0.20,0.3,-811.0,2.412,90633.492,930.740,2.412,90628.460,931.146,19721,-9.222,931.146,-150190784.0,14.90,1.702,0.0,0.0,0.0,4.260,-5.532
19757,2,19757,36,-9.491,-1.864,-9.247,81.189,33.48,30.163,0.14,0.22,0.0,-811.0,-9.382,-1.730,-9.250,81.584,33.323,30.356,0.13,0.12,0.2,-811.0,2.412,90634.375,930.601,2.408,90637.218,930.141,19757,-9.247,930.141,-150523248.0,-27.928,7.167,0.0,0.0,0.0,4.260,-5.547
19799,2,19799,42,-9.472,-1.863,-9.245,81.256,33.10,30.198,0.15,0.22,0.0,-811.0,-9.274,-1.830,-9.199,81.438,32.972,29.976,0.19,0.29,0.8,-811.0,2.412,90634.375,930.642,2.417,90631.703,930.945,19799,-9.245,930.945,-150911600.0,19.143,1.635,0.0,0.0,0.0,4.260,-5.546
19835,2,19835,36,-9.479,-1.867,-9.237,81.385,33.142,30.304,0.14,0.18,0.3,-811.0,-9.547,-1.859,-9.128,81.759,32.987,30.444,0.14,0.4,0.14,-811.0,2.412,90633.703,930.603,2.412,90637.218,930.240,19835,-9.237,930.240,-151244288.0,-19.582,3.424,0.0,0.0,0.0,4.253,-5.541
19878,2,19878,43,-9.502,-1.831,-9.255,81.578,33.151,30.175,0.13,0.16,0.2,-811.0,-9.712,-1.859,-9.400,82.183,32.855,30.5,0.10,0.16,0.2,-811.0,2.413,90634.593,930.583,2.417,90638.359,930.442,19878,-9.255,930.442,-151641888.0,4.696,1.876,0.0,0.0,0.0,4.253,-5.552
19931,2,19931,53,-9.508,-1.846,-9.268,81.794,33.69,30.137,0.14,0.15,0.2,-811.0,-9.626,-1.952,-9.364,82.8,33.206,29.903,0.14,0.15,0.3,-811.0,2.413,90635.906,930.401,2.412,90635.62,930.234,19931,-9.268,930.234,-152132784.0,-3.924,2.133,0.0,0.0,0.0,4.260,-5.560
19979,2,19979,48,-9.527,-1.863,-9.263,81.885,33.45,30.152,0.13,0.16,0.2,-811.0,-9.475,-1.816,-9.221,82.37,33.206,30.429,0.8,0.17,0.4,-811.0,2.412,90635.46,930.460,2.399,90632.898,930.437,19979,-9.263,930.437,-152577552.0,4.219,1.887,0.0,0.0,0.0,4.253,-5.556
20015,2,20015,36,-9.581,-1.864,-9.278,81.973,33.75,30.251,0.12,0.13,0.5,-804.599,-9.547,-1.837,-9.278,81.876,33.118,30.473,0.13,0.13,0.7,-779.0,2.408,90634.632,930.338,2.399,90629.601,930.338,20015,-9.278,930.338,-152911312.0,-2.736,2.89,0.0,0.0,0.0,4.260,-5.566
20059,2,20059,44,-9.639,-1.982,-9.316,81.929,33.186,30.178,0.10,0.27,0.6,-804.599,-9.834,-2.447,-9.314,81.540,33.542,30.78,0.3,0.75,0.19,-811.0,2.408,90633.976,930.458,2.412,90633.976,930.841,20059,-9.316,930.841,-153320400.0,11.431,1.744,0.0,0.0,0.0,4.260,-5.588
20095,2,20095,36,-9.599,-2.4,-9.234,81.873,33.317,30.102,0.9,0.22,0.11,-804.599,-9.511,-1.966,-8.991,81.905,33.513,29.625,0.8,0.10,0.23,-811.0,2.404,90634.648,930.518,2.399,90641.718,930.743,20095,-9.234,930.743,-153654304.0,-2.736,2.89,0.0,0.0,0.0,4.253,-5.539
20137,2,20137,42,-9.622,-1.998,-9.270,81.672,33.253,30.163,0.9,0.20,0.12,-804.599,-9.741,-1.923,-9.544,80.999,32.885,30.210,0.12,0.8,0.8,-811.0,2.403,90633.984,930.620,2.408,90631.703,930.743,20137,-9.270,930.743,-154042896.0,0.0,2.0,0.0,0.0,0.0,4.253,-5.561
20173,2,20173,36,-9.649,-2.25,-9.280,81.534,33.230,30.17,0.10,0.22,0.11,-804.599,-9.611,-1.952,-9.271,81.350,33.89,29.698,0.16,0.24,0.1,-811.0,2.405,90633.531,930.600,2.408,90630.679,930.338,20173,-9.280,930.338,-154376800.0,-11.235,2.508,0.0,0.0,0.0,4.253,-5.567
20216,2,20216,43,-9.659,-2.24,-9.294,81.370,33.203,29.997,0.10,0.24,0.9,-811.0,-9.597,-1.830,-9.350,81.58,32.987,30.371,0.14,0.22,0.1,-811.0,2.408,90634.187,930.680,2.412,90632.843,930.738,20216,-9.294,930.738,-154776160.0,9.291,1.782,0.0,0.0,0.0,4.253,-5.575
20253,2,20253,37,-9.610,-1.900,-9.274,81.312,33.54,30.5,0.13,0.13,0.4,-811.0,-9.590,-1.830,-9.214,81.248,32.797,30.122,0.14,0.24,0.6,-811.0,2.407,90634.843,930.661,2.408,90637.281,930.743,20253,-9.274,930.743,-155119680.0,0.133,1.996,0.0,0.0,0.0,4.253,-5.563
20294,2,20294,41,-9.624,-1.882,-9.321,81.151,33.13,30.105,0.14,0.20,0.1,-811.0,-9.583,-1.873,-9.228,81.102,33.308,30.122,0.14,0.20,0.4,-811.0,2.409,90634.398,930.722,2.408,90639.500,931.49,20294,-9.321,931.49,-155500912.0,7.476,1.816,0.0,0.0,0.0,4.260,-5.592
20330,2,20330,36,-9.587,-1.864,-9.263,81.90,32.961,30.157,0.15,0.23,0.3,-811.0,-9.554,-1.837,-9.250,80.692,32.622,30.473,0.15,0.23,0.4,-811.0,2.411,90634.859,930.702,2.417,90633.976,930.645,20330,-9.263,930.645,-155835440.0,-11.235,2.508,0.0,0.0,0.0,4.260,-5.556
20374,2,20374,44,-9.567,-1.850,-9.235,80.920,32.902,30.190,0.14,0.22,0.3,-811.0,-9.511,-1.880,-9.135,80.502,32.797,29.859,0.13,0.23,0.1,-811.0,2.412,90635.960,930.742,2.412,90636.195,930.536,20374,-9.235,930.536,-156242416.0,-2.476,2.80,0.0,0.0,0.0,4.253,-5.540
20410,2,20410,36,-9.537,-1.859,-9.207,80.955,32.946,30.111,0.14,0.21,0.2,-811.0,-9.446,-1.873,-9.207,81.233,33.206,29.976,0.13,0.15,0.6,-811.0,2.411,90635.742,930.642,2.408,90631.757,930.240,20410,-9.207,930.240,-156574384.0,-8.209,2.326,0.0,0.0,0.0,4.253,-5.523
20479,2,20479,69,-9.533,-1.869,-9.217,80.862,32.870,30.146,0.14,0.20,0.0,-811.0,-9.568,-1.880,-9.264,80.780,32.417,30.298,0.15,0.19,0.9,-811.0,2.410,90633.765,930.579,2.403,90627.437,930.427,20479,-9.217,930.427,-157210016.0,2.703,1.924,0.0,0.0,0.0,4.253,-5.529
20515,2,20515,36,-9.528,-1.856,-9.215,80.765,32.750,30.184,0.14,0.19,0.2,-811.0,-9.561,-1.808,-9.221,80.619,32.709,30.312,0.14,0.16,0.4,-811.0,2.408,90633.781,930.556,2.399,90639.554,930.934,20515,-9.215,930.934,-157541808.0,14.95,1.702,0.0,0.0,0.0,4.253,-5.528
20557,2,20557,42,-9.520,-1.856,-9.208,80.792,32.753,30.137,0.14,0.18,0.4,-811.0,-9.511,-1.837,-9.214,80.824,32.636,30.239,0.16,0.18,0.4,-811.0,2.402,90634.15,930.493,2.389,90635.117,930.328,20557,-9.208,930.328,-157928720.0,-14.439,2.764,0.0,0.0,0.0,4.253,-5.524
20593,2,20593,36,-9.557,-1.857,-9.240,80.932,32.736,30.254,0.14,0.17,0.5,-811.0,-9.698,-1.887,-9.293,81.204,32.709,30.444,0.12,0.16,0.2,-811.0,2.399,90633.796,930.553,2.394,90635.117,930.836,20593,-9.240,930.836,-158260800.0,14.124,1.702,0.0,0.0,0.0,4.253,-5.543
20637,2,20637,44,-9.555,-1.857,-9.247,81.58,32.686,30.330,0.14,0.18,0.4,-811.0,-9.439,-1.873,-9.242,81.862,32.958,30.356,0.16,0.18,0.2,-811.0,2.397,90634.39,930.591,2.399,90632.953,930.432,20637,-9.247,930.432,-158667520.0,-9.192,2.380,0.0,0.0,0.0,4.253,-5.547
20673,2,20673,36,-9.537,-1.867,-9.238,81.93,32.703,30.213,0.15,0.19,0.4,-811.0,-9.475,-1.931,-9.221,80.955,32.505,29.713,0.16,0.25,0.7,-811.0,2.397,90636.250,930.652,2.403,90638.476,930.732,20673,-9.238,930.732,-159000272.0,8.346,1.799,0.0,0.0,0.0,4.253,-5.542
20716,2,20716,43,-9.547,-1.889,-9.245,81.227,32.700,30.321,0.15,0.18,0.5,-811.0,-9.611,-1.916,-9.257,81.292,32.695,30.853,0.16,0.14,0.8,-811.0,2.397,90634.703,930.511,2.399,90631.820,930.229,20716,-9.245,930.229,-159397680.0,-11.697,2.540,0.0,0.0,0.0,4.253,-5.546
20752,2,20752,36,-9.544,-2.256,-9.250,81.292,32.660,30.339,0.15,0.19,0.4,-811.0,-9.497,-3.675,-9.235,81.145,32.432,30.327,0.13,0.22,0.1,-811.0,2.397,90635.140,930.673,2.389,90637.335,931.136,20752,-9.250,931.136,-159730608.0,25.192,1.569,0.0,0.0,0.0,4.253,-5.549
20795,2,20795,43,-9.501,-2.255,-9.218,81.347,32.718,30.359,0.14,0.19,0.3,-811.0,-9.482,-1.880,-9.135,81.482,33.2,30.546,0.11,0.18,0.0,-811.0,2.398,90634.703,930.652,2.399,90632.953,930.732,20795,-9.218,930.732,-160127680.0,-9.393,2.392,0.0,0.0,0.0,4.260,-5.530
20831,2,20831,36,-9.530,-2.252,-9.214,81.341,32.695,30.403,0.13,0.18,0.4,-811.0,-9.583,-1.859,-9.221,81.832,32.841,30.575,0.10,0.14,0.5,-811.0,2.397,90635.593,930.651,2.394,90637.390,930.427,20831,-9.214,930.427,-160459472.0,-8.485,2.341,0.0,0.0,0.0,4.253,-5.527
20873,2,20873,42,-9.540,-2.255,-9.225,81.408,32.654,30.461,0.13,0.17,0.3,-811.0,-9.525,-1.945,-9.278,81.292,32.300,30.5,0.13,0.16,0.4,-811.0,2.396,90635.609,930.611,2.399,90638.531,930.530,20873,-9.225,930.530,-160846704.0,2.464,1.931,0.0,0.0,0.0,4.253,-5.534
20909,2,20909,36,-9.555,-2.262,-9.225,81.455,32.651,30.304,0.12,0.17,0.2,-811.0,-9.690,-1.952,-9.257,81.525,32.680,30.64,0.13,0.17,0.4,-811.0,2.393,90636.492,930.631,2.385,90636.257,930.328,20909,-9.225,930.328,-161178832.0,-5.625,2.203,0.0,0.0,0.0,4.253,-5.534
20952,2,20952,43,-9.571,-1.913,-9.227,81.455,32.680,30.257,0.12,0.16,0.3,-811.0,-9.576,-1.931,-9.242,81.145,32.578,30.93,0.13,0.17,0.0,-811.0,2.392,90636.289,930.428,2.385,90636.312,930.125,20952,-9.227,930.125,-161575568.0,-4.709,2.164,0.0,0.0,0.0,4.253,-5.535
21014,2,21014,62,-9.581,-1.906,-9.245,81.441,32.668,30.268,0.12,0.16,0.4,-811.0,-9.533,-1.844,-9.228,81.408,32.943,30.605,0.11,0.18,0.7,-811.0,2.390,90637.640,930.406,2.389,90639.726,930.623,21014,-9.245,930.623,-162148224.0,8.23,1.805,0.0,0.0,0.0,4.253,-5.546
21189,2,21189,175,-9.571,-1.890,-9.260,81.423,32.759,30.178,0.13,0.16,0.4,-811.0,-9.533,-1.780,-9.293,81.745,33.294,30.122,0.14,0.14,0.3,-811.0,2.387,90638.179,930.358,2.376,90640.70,930.182,21189,-9.260,930.182,-163767488.0,-2.515,2.81,0.0,0.0,0.0,4.253,-5.555
21225,2,21225,36,-9.590,-1.875,-9.247,81.438,32.955,30.263,0.13,0.16,0.4,-811.0,-9.619,-1.866,-9.214,81.365,33.279,30.429,0.13,0.15,0.5,-811.0,2.370,90638.31,930.370,2.316,90637.789,930.592,21225,-9.247,930.592,-164100624.0,11.372,1.745,0.0,0.0,0.0,4.260,-5.547
21399,2,21399,174,-9.557,-1.853,-9.240,81.403,33.4,30.266,0.13,0.16,0.5,-811.0,-9.525,-1.844,-9.221,81.350,32.928,30.78,0.12,0.16,0.8,-811.0,2.359,90639.46,930.319,2.330,90641.320,930.74,21399,-9.240,930.74,-165709008.0,-2.975,2.98,0.0,0.0,0.0,4.253,-5.543
21436,2,21436,37,-9.227,2.762,-9.501,81.563,33.165,30.397,0.13,0.19,0.6,-811.0,-7.925,21.147,-10.549,81.949,33.382,30.751,0.13,0.31,0.7,-811.0,2.341,90639.796,930.370,2.293,90640.125,930.379,21436,-9.501,930.379,-166055728.0,8.254,1.801,0.0,0.0,0.0,4.253,-5.699
21574,2,21574,138,-9.235,3.118,-9.504,81.710,33.177,30.380,0.13,0.18,0.8,-811.0,-9.576,0.64,-9.242,82.139,33.2,30.517,0.14,0.14,0.15,-811.0,2.326,90639.31,930.360,2.316,90635.859,930.571,21574,-9.504,930.571,-167367104.0,1.391,1.959,0.0,0.0,0.0,4.253,-5.701
21622,2,21622,48,-9.247,3.83,-9.497,81.587,33.206,30.514,0.13,0.17,0.6,-811.0,-9.590,-1.952,-9.257,81.131,33.440,30.795,0.11,0.11,0.3,-811.0,2.310,90639.265,930.440,2.297,90641.257,930.582,21622,-9.497,930.582,-167823136.0,0.217,1.993,0.0,0.0,0.0,4.253,-5.697
21664,2,21664,42,-9.238,3.76,-9.527,81.672,33.218,30.488,0.13,0.19,0.5,-811.0,-9.576,-1.902,-9.364,81.788,33.338,30.298,0.14,0.21,0.0,-811.0,2.308,90640.171,930.519,2.307,90642.289,930.991,21664,-9.527,930.991,-168222640.0,9.736,1.773,0.0,0.0,0.0,4.253,-5.715
21700,2,21700,36,-9.253,3.62,-9.537,81.894,33.156,30.640,0.13,0.20,0.3,-811.0,-9.597,-1.916,-9.271,82.461,32.622,30.838,0.14,0.25,0.1,-811.0,2.307,90638.578,930.603,2.320,90633.359,930.493,21700,-9.537,930.493,-168565792.0,-13.821,2.708,0.0,0.0,0.0,4.253,-5.721
21744,2,21744,44,-9.573,-1.540,-9.278,81.806,33.101,30.599,0.13,0.18,0.2,-811.0,-9.525,-1.866,-9.257,81.511,33.104,30.546,0.11,0.18,0.0,-811.0,2.313,90637.890,930.686,2.325,90636.656,930.794,21744,-9.278,930.794,-168979744.0,6.830,1.829,0.0,0.0,0.0,4.253,-5.566
21785,2,21785,41,-9.554,-1.896,-9.278,81.739,33.101,30.596,0.13,0.19,0.0,-811.0,-9.482,-1.844,-9.242,81.803,33.2,30.502,0.16,0.19,0.3,-811.0,2.317,90638.46,930.651,2.334,90636.656,930.395,21785,-9.278,930.395,-169360176.0,-9.717,2.411,0.0,0.0,0.0,4.260,-5.566
21821,2,21821,36,-9.550,-1.889,-9.252,81.783,33.57,30.423,0.13,0.21,0.1,-811.0,-9.568,-1.916,-9.128,81.350,33.221,29.932,0.12,0.24,0.9,-811.0,2.325,90637.546,930.736,2.339,90638.757,931.7,21821,-9.252,931.7,-169693744.0,16.983,1.662,0.0,0.0,0.0,4.253,-5.550
21864,2,21864,43,-9.551,-1.886,-9.224,81.762,32.931,30.412,0.12,0.22,0.1,-811.0,-9.583,-1.887,-9.221,81.686,32.709,30.239,0.8,0.26,0.2,-811.0,2.332,90636.851,930.577,2.343,90638.820,930.198,21864,-9.224,930.198,-170091008.0,-18.813,3.295,0.0,0.0,0.0,4.253,-5.533
21900,2,21900,36,-9.531,-1.870,-9.205,81.546,32.981,30.342,0.11,0.20,0.0,-811.0,-9.497,-1.837,-9.178,81.379,32.870,30.488,0.10,0.11,0.8,-811.0,2.338,90637.500,930.578,2.348,90636.601,930.498,21900,-9.205,930.498,-170422752.0,8.346,1.799,0.0,0.0,0.0,4.253,-5.522
21942,2,21942,42,-9.580,-1.882,-9.218,81.525,32.923,30.289,0.12,0.26,0.6,-811.0,-9.769,-1.923,-9.321,81.408,32.812,30.283,0.14,0.50,0.34,-811.0,2.342,90638.804,930.541,2.348,90643.195,930.607,21942,-9.218,930.607,-170809664.0,2.593,1.927,0.0,0.0,0.0,4.253,-5.530
21978,2,21978,36,-9.581,-1.892,-9.212,81.394,32.806,30.207,0.9,0.25,0.6,-811.0,-9.489,-1.895,-9.214,81.145,32.417,30.93,0.0,0.15,0.3,-811.0,2.345,90638.335,930.523,2.348,90634.320,930.307,21978,-9.212,930.307,-171141424.0,-8.346,2.334,0.0,0.0,0.0,4.260,-5.526
22021,2,22021,43,-9.564,-1.873,-9.215,81.531,32.668,30.298,0.9,0.23,0.2,-811.0,-9.482,-1.823,-9.142,82.37,32.534,30.385,0.14,0.13,0.10,-811.0,2.346,90638.335,930.564,2.343,90638.757,931.209,22021,-9.215,931.209,-171537632.0,20.988,1.613,0.0,0.0,0.0,4.253,-5.528
22057,2,22057,36,-9.600,-1.876,-9.229,81.563,32.642,30.403,0.11,0.22,0.3,-811.0,-9.762,-1.902,-9.293,81.847,32.578,30.765,0.18,0.21,0.6,-811.0,2.345,90637.648,930.666,2.339,90635.406,930.706,22057,-9.229,930.706,-171869648.0,-13.971,2.721,0.0,0.0,0.0,4.260,-5.537
22102,2,22102,45,-9.603,-1.883,-9.241,81.482,32.674,30.327,0.12,0.23,0.3,-811.0,-9.511,-1.873,-9.235,80.970,33.31,30.108,0.12,0.16,0.9,-811.0,2.345,90638.78,930.647,2.348,90638.703,930.405,22102,-9.241,930.405,-172285248.0,-6.689,2.251,0.0,0.0,0.0,4.260,-5.543
22169,2,22169,67,-9.545,-1.862,-9.209,81.502,32.677,30.380,0.12,0.21,0.0,-811.0,-9.482,-1.816,-9.163,81.511,32.826,30.546,0.15,0.39,0.18,-811.0,2.346,90636.328,930.665,2.353,90634.437,930.696,22169,-9.209,930.696,-172903376.0,4.337,1.884,0.0,0.0,0.0,4.260,-5.525
22210,2,22210,41,-9.537,-1.849,-9.221,81.499,32.683,30.377,0.15,0.24,0.3,-811.0,-9.446,-1.830,-9.271,81.131,32.446,30.78,0.14,0.32,0.11,-811.0,2.342,90637.15,930.662,2.330,90637.789,930.291,22210,-9.221,930.291,-173281216.0,-9.866,2.420,0.0,0.0,0.0,4.260,-5.531
22246,2,22246,36,-9.555,-1.844,-9.224,81.452,32.738,30.289,0.14,0.27,0.7,-811.0,-9.576,-1.801,-9.156,81.803,32.812,29.947,0.12,0.28,0.10,-811.0,2.340,90636.593,930.440,2.330,90636.656,930.99,22246,-9.224,930.99,-173613232.0,-5.333,2.190,0.0,0.0,0.0,4.247,-5.533
22289,2,22289,43,-9.484,-1.837,-9.196,81.359,32.680,30.257,0.14,0.27,0.6,-811.0,-9.403,-1.866,-9.156,81.379,32.285,30.605,0.14,0.22,0.2,-811.0,2.340,90636.390,930.278,2.339,90634.382,929.898,22289,-9.196,929.898,-174009280.0,-4.684,2.163,0.0,0.0,0.0,4.253,-5.517
22325,2,22325,36,-9.474,-1.823,-9.205,81.362,32.496,30.283,0.14,0.26,0.5,-811.0,-9.461,-1.801,-9.278,80.985,32.110,30.239,0.13,0.8,0.17,-811.0,2.338,90636.421,930.317,2.339,90638.820,930.602,22325,-9.205,930.602,-174340528.0,19.566,1.630,0.0,0.0,0.0,4.253,-5.522
22368,2,22368,43,-9.521,-1.839,-9.222,81.324,32.461,30.263,0.13,0.22,0.1,-811.0,-9.719,-1.895,-9.250,81.321,32.651,30.444,0.14,0.23,0.1,-811.0,2.337,90638.835,930.177,2.348,90646.554,929.996,22368,-9.222,929.996,-174736736.0,-14.90,2.732,0.0,0.0,0.0,4.253,-5.532
22404,2,22404,36,-9.522,-1.834,-9.221,81.406,32.478,30.213,0.13,0.20,0.1,-811.0,-9.454,-1.808,-9.264,81.540,32.534,29.830,0.13,0.18,0.1,-811.0,2.340,90638.601,930.99,2.343,90636.601,929.898,22404,-9.221,929.898,-175068736.0,-2.736,2.89,0.0,0.0,0.0,4.253,-5.531
22447,2,22447,43,-9.544,-1.837,-9.231,81.356,32.493,30.230,0.13,0.18,0.2,-811.0,-9.683,-1.816,-9.207,81.555,32.885,30.35,0.12,0.20,0.4,-811.0,2.342,90639.703,930.219,2.343,90642.171,930.701,22447,-9.231,930.701,-175465472.0,18.672,1.640,0.0,0.0,0.0,4.260,-5.537
22483,2,22483,36,-9.587,-1.834,-9.232,81.455,32.572,30.58,0.12,0.15,0.5,-811.0,-9.619,-1.852,-9.163,81.876,32.680,29.742,0.8,0.9,0.14,-811.0,2.342,90642.140,930.299,2.334,90646.554,930.296,22483,-9.232,930.296,-175797824.0,-11.235,2.508,0.0,0.0,0.0,4.253,-5.538
22525,2,22525,42,-9.597,-1.811,-9.218,81.581,32.627,29.956,0.12,0.17,0.2,-811.0,-9.511,-1.686,-9.207,81.613,32.388,29.728,0.12,0.18,0.0,-811.0,2.342,90641.703,930.176,2.339,90636.656,929.991,22525,-9.218,929.991,-176185296.0,-7.271,2.279,0.0,0.0,0.0,4.253,-5.530
22561,2,22561,36,-9.571,-1.807,-9.184,81.566,32.616,29.789,0.12,0.17,0.2,-811.0,-9.590,-1.873,-9.77,81.248,32.592,29.611,0.14,0.21,0.3,-811.0,2.339,90640.171,930.296,2.334,90638.875,930.592,22561,-9.184,930.592,-176516544.0,16.691,1.666,0.0,0.0,0.0,4.260,-5.509
22604,2,22604,43,-9.584,-1.790,-9.153,81.660,32.578,29.830,0.12,0.16,0.4,-811.0,-9.518,-1.722,-9.113,82.8,32.344,30.35,0.12,0.15,0.9,-811.0,2.335,90640.414,930.394,2.325,90637.789,930.390,22604,-9.153,930.390,-176910816.0,-4.684,2.163,0.0,0.0,0.0,4.253,-5.491
22667,2,22667,63,-9.551,-1.791,-9.158,81.680,32.505,29.783,0.12,0.17,0.4,-811.0,-9.518,-1.823,-9.228,81.657,32.519,29.801,0.12,0.21,0.1,-811.0,2.330,90639.109,930.249,2.316,90635.687,929.975,22667,-9.158,929.975,-177487648.0,-6.594,2.246,0.0,0.0,0.0,4.253,-5.494
22710,2,22710,43,-9.548,-1.775,-9.168,81.496,32.467,29.766,0.12,0.19,0.2,-811.0,-9.604,-1.773,-9.214,80.955,32.490,29.655,0.11,0.20,0.4,-811.0,2.323,90637.390,930.306,2.302,90637.960,930.582,22710,-9.168,930.582,-177881664.0,14.116,1.702,0.0,0.0,0.0,4.253,-5.500
22747,2,22747,37,-9.557,-1.819,-9.173,81.534,32.578,29.795,0.12,0.18,0.4,-811.0,-9.554,-1.902,-9.235,81.803,32.943,29.874,0.11,0.11,0.4,-811.0,2.315,90636.757,930.445,2.297,90633.468,930.686,22747,-9.173,930.686,-178220992.0,2.810,1.922,0.0,0.0,0.0,4.253,-5.503
22788,2,22788,41,-9.567,-1.816,-9.202,81.748,32.668,29.970,0.12,0.17,0.3,-811.0,-9.640,-1.859,-9.221,82.315,33.45,30.488,0.14,0.19,0.1,-811.0,2.308,90635.898,930.383,2.302,90634.609,930.281,22788,-9.202,930.281,-178597712.0,-9.865,2.420,0.0,0.0,0.0,4.253,-5.520
22824,2,22824,36,-9.578,-2.203,-9.214,81.759,32.791,29.877,0.11,0.16,0.3,-811.0,-9.576,-3.661,-9.171,82.66,32.958,29.567,0.7,0.8,0.9,-811.0,2.306,90635.46,930.541,2.311,90633.468,931.183,22824,-9.214,931.183,-178929216.0,25.56,1.570,0.0,0.0,0.0,4.253,-5.527
22867,2,22867,43,-9.594,-2.202,-9.201,81.759,32.736,29.868,0.11,0.15,0.4,-811.0,-9.597,-1.816,-9.163,81.657,32.242,29.757,0.14,0.19,0.1,-811.0,2.303,90634.382,930.582,2.302,90632.390,930.177,22867,-9.201,930.177,-179325152.0,-23.396,4.354,0.0,0.0,0.0,4.260,-5.519
22903,2,22903,36,-9.578,-2.193,-9.175,81.900,32.776,29.938,0.12,0.17,0.2,-811.0,-9.525,-1.730,-9.84,81.657,32.695,30.5,0.14,0.26,0.5,-811.0,2.302,90634.156,930.621,2.297,90636.828,930.779,22903,-9.175,930.779,-179655936.0,16.708,1.666,0.0,0.0,0.0,4.260,-5.504
22945,2,22945,42,-9.558,-2.169,-9.176,81.882,32.709,29.944,0.11,0.18,0.1,-811.0,-9.454,-1.780,-9.242,81.715,32.607,29.903,0.8,0.15,0.2,-811.0,2.303,90634.835,930.580,2.302,90636.882,930.478,22945,-9.176,930.478,-180041328.0,-7.167,2.273,0.0,0.0,0.0,4.253,-5.505
22981,2,22981,36,-9.535,-2.167,-9.208,81.812,32.566,29.947,0.11,0.17,0.2,-811.0,-9.525,-1.852,-9.379,81.964,32.329,30.502,0.11,0.18,0.3,-811.0,2.300,90635.507,930.700,2.288,90637.960,930.882,22981,-9.208,930.882,-180372256.0,11.220,1.748,0.0,0.0,0.0,4.260,-5.524
23025,2,23025,44,-9.514,-1.912,-9.227,81.780,32.522,30.87,0.12,0.21,0.0,-811.0,-9.468,-2.383,-9.264,81.905,32.738,30.268,0.12,0.28,0.2,-811.0,2.298,90636.851,930.679,2.302,90640.179,931.79,23025,-9.227,931.79,-180777840.0,4.490,1.881,0.0,0.0,0.0,4.260,-5.535
23061,2,23061,36,-9.492,-1.889,-9.232,81.949,32.586,30.230,0.13,0.20,0.1,-811.0,-9.489,-1.701,-9.192,82.505,32.563,30.473,0.18,0.14,0.10,-811.0,2.296,90637.515,930.839,2.293,90635.742,930.975,23061,-9.232,930.975,-181110112.0,-2.888,2.94,0.0,0.0,0.0,4.253,-5.538
23103,2,23103,42,-9.524,-1.912,-9.257,82.122,32.651,30.210,0.12,0.17,0.2,-811.0,-9.683,-1.844,-9.207,82.519,33.16,29.903,0.9,0.12,0.1,-811.0,2.296,90637.531,930.858,2.297,90636.882,930.877,23103,-9.257,930.877,-181498400.0,-2.345,2.75,0.0,0.0,0.0,4.253,-5.553
23139,2,23139,36,-9.581,-1.955,-9.250,82.37,32.668,30.257,0.12,0.17,0.4,-811.0,-9.741,-1.995,-9.207,81.292,32.695,30.137,0.10,0.15,0.10,-811.0,2.294,90637.85,930.898,2.288,90634.664,930.675,23139,-9.250,930.675,-181831536.0,-5.610,2.202,0.0,0.0,0.0,4.260,-5.549
23208,2,23208,69,-9.580,-1.942,-9.217,81.932,32.639,30.283,0.12,0.18,0.3,-811.0,-9.518,-1.787,-9.214,81.438,32.183,30.634,0.12,0.21,0.0,-811.0,2.294,90636.679,930.955,2.288,90635.914,931.167,23208,-9.217,931.167,-182468656.0,7.138,1.823,0.0,0.0,0.0,4.260,-5.529
23244,2,23244,36,-9.570,-1.839,-9.195,81.783,32.546,30.388,0.13,0.16,0.3,-811.0,-9.418,-1.866,-9.156,81.160,32.271,30.795,0.14,0.20,0.3,-811.0,2.288,90636.265,930.852,2.274,90638.132,930.566,23244,-9.195,930.566,-182800080.0,-16.708,3.5,0.0,0.0,0.0,4.253,-5.516
23287,2,23287,43,-9.570,-1.857,-9.244,81.528,32.546,30.447,0.11,0.15,0.7,-811.0,-9.489,-1.794,-9.436,81.233,32.563,30.765,0.12,0.8,0.26,-811.0,2.283,90635.859,930.810,2.265,90633.695,930.763,23287,-9.244,930.763,-183196544.0,4.581,1.879,0.0,0.0,0.0,4.253,-5.545
23323,2,23323,36,-9.544,-1.859,-9.215,81.271,32.411,30.561,0.14,0.21,0.4,-811.0,-9.554,-1.852,-9.63,81.233,32.344,30.473,0.23,0.42,0.12,-811.0,2.276,90635.0,930.767,2.265,90632.617,930.665,23323,-9.215,930.665,-183528816.0,-2.721,2.88,0.0,0.0,0.0,4.253,-5.528
23365,2,23365,42,-9.505,-1.816,-9.212,81.274,32.399,30.584,0.14,0.19,0.3,-811.0,-9.547,-1.780,-9.192,81.306,32.636,30.254,0.7,0.5,0.7,-811.0,2.272,90634.148,930.683,2.265,90630.398,930.255,23365,-9.212,930.255,-183915808.0,-9.749,2.413,0.0,0.0,0.0,4.260,-5.526
23401,2,23401,36,-9.530,-1.810,-9.217,81.169,32.423,30.508,0.14,0.16,0.5,-811.0,-9.640,-1.758,-9.235,80.912,32.300,30.254,0.14,0.7,0.9,-811.0,2.267,90633.273,930.522,2.265,90631.531,930.358,23401,-9.217,930.358,-184247552.0,2.858,1.921,0.0,0.0,0.0,4.253,-5.529
23444,2,23444,43,-9.555,-1.839,-9.222,81.312,32.452,30.330,0.13,0.14,0.8,-811.0,-9.547,-2.9,-9.185,81.876,32.417,29.903,0.10,0.6,0.13,-811.0,2.265,90632.843,930.339,2.265,90635.968,929.654,23444,-9.222,929.654,-184644016.0,-16.380,2.966,0.0,0.0,0.0,4.253,-5.532
23480,2,23480,36,-9.587,-1.844,-9.182,81.566,32.391,30.245,0.14,0.17,0.0,-811.0,-9.647,-1.823,-9.235,82.505,32.256,30.342,0.14,0.25,0.12,-811.0,2.266,90633.70,930.239,2.270,90634.828,930.261,23480,-9.182,930.261,-184975312.0,16.860,1.664,0.0,0.0,0.0,4.253,-5.508
23522,2,23522,42,-9.547,-1.857,-9.207,81.686,32.309,30.257,0.12,0.13,0.3,-811.0,-9.353,-1.916,-9.185,81.832,31.935,30.532,0.15,0.24,0.1,-811.0,2.267,90634.187,930.76,2.270,90638.187,929.852,23522,-9.207,929.852,-185361488.0,-9.748,2.413,0.0,0.0,0.0,4.260,-5.523
23558,2,23558,36,-9.533,-1.850,-9.192,81.759,32.221,30.453,0.14,0.19,0.1,-811.0,-9.475,-1.744,-9.120,81.672,32.198,31.233,0.15,0.34,0.3,-811.0,2.268,90635.289,929.995,2.270,90635.914,929.852,23558,-9.192,929.852,-185692688.0,0.0,2.0,0.0,0.0,0.0,4.253,-5.514
23601,2,23601,43,-9.514,-1.872,-9.158,81.870,32.306,30.640,0.13,0.22,0.0,-811.0,-9.547,-1.866,-9.63,81.467,32.724,31.189,0.10,0.19,0.4,-811.0,2.269,90637.46,930.36,2.270,90640.351,930.561,23601,-9.158,930.561,-186087232.0,16.496,1.668,0.0,0.0,0.0,4.260,-5.494
23643,2,23643,42,-9.514,-1.853,-9.149,81.791,32.256,30.780,0.13,0.21,0.0,-811.0,-9.547,-1.916,-9.142,81.482,32.168,30.605,0.11,0.4,0.14,-811.0,2.270,90637.710,930.197,2.270,90639.265,930.457,23643,-9.149,930.457,-186471696.0,-2.464,2.79,0.0,0.0,0.0,4.260,-5.488
23706,2,23706,63,-9.494,-1.862,-9.107,81.610,32.306,30.838,0.14,0.22,0.2,-811.0,-9.547,-1.866,-9.27,81.598,32.505,30.634,0.16,0.29,0.3,-811.0,2.268,90638.390,930.295,2.261,90638.242,930.753,23706,-9.107,930.753,-187046816.0,4.690,1.876,0.0,0.0,0.0,4.253,-5.463
23748,2,23748,42,-9.543,-1.826,-9.103,81.464,32.405,30.800,0.13,0.22,0.1,-811.0,-9.597,-1.737,-9.163,81.102,32.432,30.342,0.13,0.24,0.4,-811.0,2.264,90638.843,930.436,2.251,90640.460,930.556,23748,-9.103,930.556,-187429264.0,-4.690,2.163,0.0,0.0,0.0,4.260,-5.461
23785,2,23785,37,-9.557,-1.814,-9.122,81.455,32.490,30.716,0.12,0.17,0.3,-811.0,-9.547,-1.686,-9.214,81.628,32.622,30.809,0.10,0.10,0.8,-811.0,2.261,90639.757,930.637,2.256,90640.460,930.856,23785,-9.122,930.856,-187766448.0,8.120,1.804,0.0,0.0,0.0,4.253,-5.472
