millis(),Current_state,Calculated_flight_time,Time_since_last_log,IMU_accel_X,IMU_accel_Y,IMU_accel_Z,IMU_mag_X,IMU_mag_Y,IMU_mag_Z,IMU_gyro_X,IMU_gyro_Y,IMU_gyro_Z,IMU_temp,Raw_IMU_accel_X,Raw_IMU_accel_Y,Raw_IMU_accel_Z,Raw_IMU_mag_X,IMU_maRaw_g_Y,IMU_mag_Raw_Z,Raw_IMU_gyro_X,IMU_gyro_Raw_Y,IMU_gyro_Raw_Z,Raw_IMU_temp,BARO_temp,BARO_press,BARO_alt,Raw_BARO_temp,Raw_BARO_press,Raw_BARO_alt,Velocity_lastUpdate,Velocity_lastZAccel,Velocity_lastAlt,Velocity_inte,Velocity_diff,Velocity_est,Est_apogee,Air_brake_angle,Battery_voltage,Z_accel_times_burnoutMass
2,4027,4027,-9.53,2.127,-6.604,-299.918,41.441,-32.408,0.8,0.43,0.3,-779.0,-9.44,2.182,-6.594,-299.561,41.610,-32.81,0.7,0.44,0.0,-779.0,2.552,91603.210,842.967,2.563,91600.7,843.298,4027,-6.604,842.967,0.0,0.0,0.0,-2147483648.2147483647,0.0,4.157,-4.94
4069,2,4069,42,-9.44,2.132,-6.589,-299.959,41.420,-32.379,0.7,0.43,0.2,-779.0,-9.23,2.132,-6.579,-299.546,41.479,-32.329,0.6,0.40,0.3,-779.0,2.556,91602.468,842.914,2.559,91602.46,842.507,4069,-6.589,842.914,-277070.562,-1.251,2.39,11669.417,0.0,4.150,-4.85
4108,2,4108,39,-9.41,2.130,-6.588,-299.944,41.476,-32.291,0.8,0.43,0.3,-779.0,-9.52,2.88,-6.615,-299.561,41.625,-32.329,0.9,0.44,0.3,-779.0,2.562,91601.726,842.920,2.573,91604.187,842.410,4108,-6.588,842.920,-534042.437,0.139,1.995,12596.278,0.0,4.150,-4.84
4144,2,4144,36,-9.54,2.114,-6.589,-299.666,41.499,-32.338,0.8,0.44,0.3,-779.0,-9.87,2.88,-6.543,-299.634,41.332,-32.417,0.9,0.47,0.6,-779.0,2.568,91601.835,842.968,2.587,91600.679,843.229,4144,-6.589,842.968,-771247.187,1.327,1.961,13115.554,0.0,4.150,-4.85
4184,2,4184,40,-9.47,2.116,-6.581,-299.710,41.482,-32.262,0.8,0.44,0.3,-779.0,-9.30,2.88,-6.572,-300.248,41.362,-32.154,0.7,0.43,0.3,-779.0,2.577,91601.734,842.855,2.601,91601.742,842.834,4184,-6.581,842.855,-1034664.500,-2.806,2.91,13530.726,0.0,4.150,-4.80
4220,2,4220,36,-9.44,2.111,-6.582,-299.812,41.473,-32.253,0.8,0.43,0.5,-779.0,-9.30,2.160,-6.601,-300.73,41.566,-32.37,0.7,0.43,0.9,-779.0,2.587,91602.726,842.643,2.615,91604.953,842.235,4220,-6.582,842.643,-1271610.875,-5.905,2.215,13822.35,0.0,4.150,-4.81
4260,2,4260,40,-9.54,2.113,-6.571,-299.850,41.438,-32.253,0.9,0.44,0.5,-779.0,-9.73,2.139,-6.522,-299.736,41.303,-32.329,0.11,0.43,0.5,-779.0,2.597,91603.70,842.831,2.610,91603.781,843.450,4260,-6.571,842.831,-1534683.625,4.716,1.876,14088.198,0.0,4.150,-4.74
4296,2,4296,36,-9.62,2.114,-6.576,-299.818,41.379,-32.353,0.8,0.44,0.5,-779.0,-9.87,2.96,-6.644,-299.400,41.332,-32.826,0.7,0.43,0.3,-779.0,2.604,91601.882,842.858,2.610,91598.234,842.543,4296,-6.576,842.858,-1771345.750,0.739,1.978,14291.290,0.0,4.150,-4.77
4336,2,4336,40,-9.50,2.104,-6.578,-299.880,41.379,-32.417,0.9,0.43,0.4,-779.0,-9.30,2.38,-6.550,-299.941,41.332,-32.738,0.12,0.44,0.0,-779.0,2.610,91602.265,842.783,2.615,91602.609,842.852,4336,-6.578,842.783,-2034447.125,-1.882,2.59,14487.1,0.0,4.150,-4.78
4372,2,4372,36,-9.56,2.124,-6.594,-299.734,41.379,-32.455,0.9,0.43,0.4,-779.0,-9.59,2.189,-6.651,-299.517,41.362,-32.344,0.7,0.44,0.4,-779.0,2.615,91603.765,842.807,2.624,91609.234,842.958,4372,-6.594,842.807,-2271548.500,0.688,1.979,14642.711,0.0,4.150,-4.88
4412,2,4412,40,-9.66,2.100,-6.588,-299.576,41.376,-32.592,0.9,0.43,0.4,-779.0,-9.80,2.38,-6.572,-299.283,41.552,-32.724,0.9,0.41,0.8,-779.0,2.616,91602.617,842.933,2.624,91599.203,842.861,4412,-6.588,842.933,-2535195.500,3.128,1.914,14798.183,0.0,4.150,-4.84
4448,2,4448,36,-9.64,2.101,-6.595,-299.584,41.555,-32.598,0.9,0.43,0.4,-779.0,-9.66,2.146,-6.558,-299.780,42.195,-32.358,0.10,0.42,0.6,-779.0,2.620,91601.937,842.896,2.629,91600.367,843.266,4448,-6.595,842.896,-2772503.750,-1.22,2.31,14924.811,0.0,4.150,-4.89
4488,2,4488,40,-9.60,2.110,-6.578,-299.643,41.578,-32.557,0.10,0.42,0.4,-779.0,-9.66,2.139,-6.558,-299.693,41.449,-32.622,0.10,0.41,0.1,-779.0,2.623,91603.23,843.62,2.624,91603.679,843.372,4488,-6.578,843.62,-3035978.500,4.142,1.889,15053.163,0.0,4.150,-4.78
4524,2,4524,36,-9.69,2.126,-6.576,-299.695,41.674,-32.429,0.8,0.42,0.5,-779.0,-9.73,2.117,-6.543,-300.204,41.815,-32.95,0.6,0.42,0.5,-779.0,2.625,91602.789,843.23,2.624,91601.437,842.658,4524,-6.576,843.23,-3272769.750,-1.74,2.33,15159.323,0.0,4.157,-4.77
4564,2,4564,40,-9.76,2.119,-6.555,-299.655,41.730,-32.490,0.8,0.42,0.5,-779.0,-9.95,2.153,-6.543,-299.313,41.639,-32.651,0.6,0.43,0.5,-779.0,2.625,91600.984,843.4,2.624,91600.265,842.861,4564,-6.555,843.4,-3535411.750,0.480,2.14,15268.608,0.0,4.157,-4.64
4612,2,4612,48,-9.69,2.129,-6.561,-299.707,41.800,-32.470,0.8,0.42,0.4,-779.0,-9.44,2.88,-6.601,-299.546,41.902,-32.622,0.8,0.41,0.3,-779.0,2.626,91602.125,842.922,2.629,91604.851,842.455,4612,-6.561,842.922,-3850203.250,-1.689,2.53,15388.860,0.0,4.150,-4.67
4651,2,4651,39,-9.79,2.134,-6.575,-299.675,41.750,-32.546,0.8,0.42,0.4,-779.0,-9.116,2.175,-6.629,-299.619,41.946,-32.738,0.11,0.43,0.4,-779.0,2.625,91603.234,842.820,2.624,91605.921,842.755,4651,-6.575,842.820,-4106363.250,-2.619,2.85,15479.499,0.0,4.150,-4.76
4687,2,4687,36,-9.87,2.137,-6.578,-299.669,41.762,-32.499,0.9,0.42,0.4,-779.0,-9.109,2.153,-6.572,-299.663,41.508,-32.388,0.12,0.39,0.1,-779.0,2.625,91603.0,842.699,2.624,91602.507,842.764,4687,-6.578,842.699,-4343128.500,-3.373,2.112,15558.583,0.0,4.157,-4.78
4727,2,4727,40,-9.79,2.130,-6.598,-299.520,41.739,-32.446,0.9,0.42,0.4,-779.0,-9.30,2.81,-6.644,-299.459,41.698,-31.832,0.8,0.42,0.8,-779.0,2.627,91602.765,842.780,2.633,91600.265,843.63,4727,-6.598,842.780,-4606660.500,2.26,1.942,15641.998,0.0,4.157,-4.90
4763,2,4763,36,-9.64,2.130,-6.608,-299.541,41.818,-32.376,0.9,0.41,0.4,-779.0,-9.23,2.153,-6.594,-299.415,42.34,-32.300,0.7,0.41,0.3,-779.0,2.629,91602.757,842.720,2.633,91600.265,842.561,4763,-6.608,842.720,-4844382.0,-1.666,2.52,15713.102,0.0,4.157,-4.97
4803,2,4803,40,-9.69,2.134,-6.605,-299.622,41.756,-32.271,0.9,0.41,0.4,-779.0,-9.66,2.110,-6.586,-299.956,41.596,-32.95,0.8,0.38,0.2,-779.0,2.630,91602.273,842.701,2.638,91602.406,842.359,4803,-6.605,842.701,-5108660.500,0.480,2.14,15788.284,0.0,4.150,-4.95
4839,2,4839,36,-9.54,2.119,-6.583,-299.736,41.683,-32.195,0.9,0.40,0.4,-779.0,-9.44,2.96,-6.522,-300.190,41.581,-32.358,0.9,0.40,0.6,-779.0,2.633,91601.335,842.743,2.638,91601.234,842.967,4839,-6.583,842.743,-5346072.0,1.174,1.965,15852.788,0.0,4.157,-4.82
4879,2,4879,40,-9.57,2.103,-6.591,-299.760,41.800,-32.183,0.9,0.41,0.4,-779.0,-9.123,2.74,-6.608,-299.780,42.92,-32.329,0.11,0.43,0.1,-779.0,2.636,91600.203,842.683,2.638,91596.859,842.465,4879,-6.591,842.683,-5609575.500,-1.496,2.47,15921.23,0.0,4.150,-4.86
4915,2,4915,36,-9.59,2.110,-6.586,-299.915,41.771,-32.350,0.9,0.42,0.4,-779.0,-9.37,2.117,-6.622,-300.233,41.552,-32.665,0.12,0.46,0.7,-779.0,2.636,91599.312,842.606,2.633,91595.789,842.677,4915,-6.586,842.606,-5846780.500,-2.148,2.68,15979.588,0.0,4.150,-4.83
4955,2,4955,40,-9.102,2.107,-6.601,-299.894,41.651,-32.338,0.10,0.41,0.5,-779.0,-9.238,2.139,-6.665,-299.313,41.435,-32.242,0.8,0.37,0.8,-779.0,2.638,91599.757,842.669,2.642,91602.507,842.879,4955,-6.601,842.669,-6110542.500,1.588,1.954,16042.2,0.0,4.150,-4.92
4991,2,4991,36,-9.109,2.98,-6.629,-299.842,41.639,-32.399,0.9,0.41,0.5,-779.0,-9.102,2.67,-6.730,-299.693,41.537,-32.402,0.7,0.36,0.2,-779.0,2.639,91601.85,842.691,2.642,91609.31,842.465,4991,-6.629,842.691,-6348703.500,0.590,1.982,16095.855,0.0,4.150,-4.110
5031,2,5031,40,-9.119,2.114,-6.642,-299.868,41.639,-32.353,0.9,0.42,0.5,-779.0,-9.95,2.175,-6.586,-300.321,41.581,-32.125,0.7,0.47,0.6,-779.0,2.641,91600.640,842.652,2.647,91598.992,842.773,5031,-6.642,842.652,-6614159.500,0.971,2.30,16153.851,0.0,4.157,-4.118
5068,2,5068,37,-9.109,2.106,-6.650,-299.786,41.531,-32.323,0.8,0.41,0.6,-779.0,-9.73,2.31,-6.644,-299.371,41.552,-32.183,0.8,0.41,0.6,-779.0,2.642,91601.273,842.754,2.647,91600.62,842.976,5068,-6.650,842.754,-6860078.0,2.766,1.923,16205.510,0.0,4.157,-4.123
5635,2,5635,567,-9.119,2.104,-6.645,-299.774,41.654,-32.432,0.7,0.41,0.5,-779.0,-9.87,2.110,-6.601,-300.175,42.166,-33.206,0.4,0.43,0.5,-779.0,2.645,91601.921,842.774,2.647,91599.39,842.778,5635,-6.645,842.774,-10629429.0,0.35,1.998,16824.82,0.0,4.157,-4.120
6193,2,6193,558,-9.67,2.103,-6.635,-299.845,41.715,-32.508,0.7,0.41,0.5,-779.0,-8.980,2.132,-6.615,-299.663,41.742,-32.622,0.10,0.37,0.6,-779.0,2.628,91601.664,842.816,2.554,91601.179,843.87,6193,-6.635,842.816,-14334944.0,0.74,1.997,17245.523,0.0,4.150,-4.114
6246,2,6246,53,-9.64,2.109,-6.615,-299.780,41.759,-32.613,0.8,0.42,0.5,-779.0,-9.87,2.96,-6.629,-299.371,41.756,-32.928,0.10,0.43,0.2,-779.0,2.612,91600.31,842.984,2.563,91600.875,843.307,6246,-6.615,842.984,-14686102.0,3.180,1.912,17279.216,0.0,4.150,-4.101
6282,2,6282,36,-9.54,2.96,-6.625,-299.397,41.788,-32.803,0.7,0.40,0.4,-779.0,-9.44,2.110,-6.637,-298.406,41.727,-33.75,0.6,0.38,0.5,-779.0,2.599,91600.828,842.954,2.582,91603.15,842.621,6282,-6.625,842.954,-14924444.0,0.844,2.25,17300.996,0.0,4.150,-4.107
6322,2,6322,40,-9.128,2.98,-6.654,-299.280,41.780,-32.952,0.8,0.39,0.5,-779.0,-9.439,2.45,-6.787,-298.786,41.508,-32.928,0.9,0.34,0.8,-779.0,2.589,91600.703,842.887,2.596,91599.406,842.640,6322,-6.654,842.887,-15190044.0,-1.681,2.53,17325.246,0.0,4.157,-4.125
6358,2,6358,36,-9.120,2.123,-6.657,-299.73,41.598,-32.873,0.9,0.38,0.4,-779.0,-9.52,2.232,-6.615,-299.137,41.259,-32.812,0.10,0.37,0.1,-779.0,2.582,91602.78,842.782,2.615,91605.921,842.253,6358,-6.657,842.782,-15429652.0,-2.916,2.95,17346.601,0.0,4.157,-4.127
6398,2,6398,40,-9.202,2.127,-6.657,-299.14,41.546,-32.896,0.9,0.36,0.4,-779.0,-9.389,2.153,-6.615,-299.371,41.479,-32.738,0.12,0.29,0.3,-779.0,2.597,91602.351,842.758,2.629,91602.507,842.967,6398,-6.657,842.758,-15695941.0,0.601,2.18,17371.585,0.0,4.157,-4.127
6434,2,6434,36,-9.199,2.152,-6.668,-299.44,41.479,-32.943,0.10,0.36,0.4,-779.0,-9.73,2.218,-6.687,-299.517,41.420,-33.162,0.12,0.44,0.3,-779.0,2.612,91603.101,842.692,2.638,91604.648,842.976,6434,-6.668,842.692,-15935808.0,-1.837,2.58,17393.701,0.0,4.144,-4.134
6474,2,6474,40,-9.237,2.160,-6.681,-299.190,41.370,-32.838,0.11,0.36,0.5,-779.0,-9.231,2.153,-6.701,-299.137,41.186,-32.548,0.11,0.37,0.11,-779.0,2.625,91602.742,842.681,2.647,91601.234,842.571,6474,-6.681,842.681,-16202815.0,0.251,2.7,17418.11,0.0,4.157,-4.142
6510,2,6510,36,-9.158,2.165,-6.632,-299.248,41.376,-32.864,0.11,0.37,0.4,-779.0,-9.44,2.67,-6.543,-299.79,41.537,-33.60,0.12,0.38,0.1,-779.0,2.635,91602.875,842.608,2.647,91600.62,842.272,6510,-6.632,842.608,-16442475.0,-2.48,2.65,17439.267,0.0,4.150,-4.112
6550,2,6550,40,-9.149,2.144,-6.632,-299.380,41.487,-32.940,0.11,0.39,0.5,-779.0,-9.8,2.132,-6.615,-299.795,41.815,-33.192,0.7,0.46,0.5,-779.0,2.642,91602.171,842.652,2.652,91602.406,842.475,6550,-6.632,842.652,-16707787.0,1.107,1.967,17462.500,0.0,4.150,-4.112
6586,2,6586,36,-9.85,2.132,-6.624,-299.380,41.432,-33.86,0.10,0.42,0.5,-779.0,-9.66,2.88,-6.572,-299.371,41.201,-33.469,0.6,0.44,0.3,-779.0,2.648,91601.890,842.555,2.656,91601.132,842.483,6586,-6.624,842.555,-16946414.0,-2.685,2.87,17482.824,0.0,4.150,-4.107
6626,2,6626,40,-9.16,2.117,-6.562,-299.365,41.467,-33.162,0.9,0.42,0.4,-779.0,-8.729,2.146,-6.378,-299.444,41.596,-33.542,0.9,0.43,0.2,-779.0,2.652,91602.85,842.679,2.656,91605.617,843.592,6626,-6.562,842.679,-17210148.0,3.80,1.915,17504.949,0.0,4.150,-4.68
6662,2,6662,36,-8.970,2.120,-6.522,-299.298,41.578,-33.168,0.8,0.41,0.1,-779.0,-9.1,2.167,-6.500,-298.801,41.742,-32.578,0.5,0.34,0.5,-779.0,2.653,91602.968,842.702,2.652,91605.617,842.686,6662,-6.522,842.702,-17445674.0,0.637,1.981,17524.64,0.0,4.150,-4.43
6702,2,6702,40,-8.931,2.136,-6.506,-299.418,41.642,-33.86,0.7,0.41,0.2,-779.0,-8.851,2.146,-6.464,-299.678,41.859,-32.651,0.7,0.37,0.7,-779.0,2.654,91603.414,842.945,2.652,91602.304,843.486,6702,-6.506,842.945,-17706248.0,6.74,1.845,17545.224,0.0,4.157,-4.34
6743,2,6743,41,-8.997,2.133,-6.502,-299.406,41.610,-32.966,0.8,0.37,0.4,-779.0,-9.339,2.117,-6.594,-299.736,41.654,-32.592,0.10,0.28,0.14,-779.0,2.654,91602.953,843.6,2.652,91600.62,842.783,6743,-6.502,843.6,-17972924.0,1.503,1.956,17566.486,0.0,4.157,-4.31
6782,2,6782,39,-9.16,2.144,-6.499,-299.427,41.733,-32.806,0.8,0.37,0.5,-779.0,-9.159,2.146,-6.558,-299.473,41.815,-32.665,0.7,0.43,0.10,-779.0,2.652,91602.500,843.64,2.647,91598.890,842.773,6782,-6.499,843.64,-18226452.0,1.485,1.957,17586.296,0.0,4.150,-4.29
6818,2,6818,36,-9.82,2.140,-6.539,-299.377,41.824,-32.557,0.7,0.37,0.6,-779.0,-9.59,2.124,-6.579,-299.196,42.49,-32.300,0.6,0.43,0.6,-779.0,2.652,91603.398,842.800,2.656,91610.101,842.272,6818,-6.539,842.800,-18461150.0,-7.332,2.282,17603.939,0.0,4.150,-4.54
6858,2,6858,40,-9.72,2.143,-6.562,-299.561,41.867,-32.627,0.7,0.40,0.6,-779.0,-8.951,2.182,-6.615,-299.722,41.961,-32.928,0.6,0.48,0.6,-779.0,2.651,91601.859,842.960,2.647,91597.921,843.486,6858,-6.562,842.960,-18723190.0,3.996,1.892,17624.232,0.0,4.150,-4.68
6894,2,6894,36,-9.92,2.144,-6.582,-299.538,41.780,-32.683,0.7,0.42,0.4,-779.0,-8.951,2.153,-6.565,-299.561,41.420,-32.928,0.7,0.49,0.2,-779.0,2.649,91600.62,842.858,2.642,91593.343,842.976,6894,-6.582,842.858,-18959800.0,-2.834,2.92,17642.83,0.0,4.150,-4.81
6934,2,6934,40,-9.27,2.162,-6.591,-299.418,41.835,-32.627,0.7,0.45,0.3,-779.0,-9.16,2.203,-6.637,-299.137,41.932,-32.315,0.10,0.44,0.11,-779.0,2.648,91600.750,843.18,2.647,91603.476,843.583,6934,-6.591,843.18,-19223274.0,4.3,1.892,17661.554,0.0,4.150,-4.86
6970,2,6970,36,-9.21,2.160,-6.602,-299.257,41.724,-32.668,0.7,0.43,0.5,-779.0,-9.131,2.139,-6.615,-298.669,41.259,-32.870,0.9,0.32,0.17,-779.0,2.648,91600.984,843.37,2.647,91600.62,842.870,6970,-6.602,843.37,-19460764.0,0.539,1.984,17678.873,0.0,4.157,-4.93
7010,2,7010,40,-8.997,1.893,-6.674,-299.725,41.645,-32.280,0.7,0.43,0.5,-779.0,-8.937,0.789,-6.938,-301.534,41.654,-30.356,0.7,0.41,0.9,-779.0,2.647,91599.875,843.159,2.652,91604.546,842.879,7010,-6.674,843.159,-19726306.0,3.38,1.916,17698.287,0.0,4.150,-4.138
7046,2,7046,36,-9.17,1.867,-6.681,-299.658,41.520,-32.271,0.8,0.41,0.8,-779.0,-9.52,2.53,-6.651,-299.386,41.332,-32.885,0.8,0.38,0.8,-779.0,2.646,91599.187,843.78,2.642,91594.515,843.82,7046,-6.681,843.78,-19966716.0,-2.246,2.72,17715.384,0.0,4.157,-4.142
7086,2,7086,40,-9.36,1.847,-6.680,-299.646,41.549,-32.177,0.9,0.40,0.8,-779.0,-9.44,2.53,-6.558,-299.503,41.566,-32.461,0.10,0.44,0.2,-779.0,2.648,91601.429,843.140,2.652,91604.546,843.284,7086,-6.680,843.140,-20233952.0,1.541,1.955,17733.923,0.0,4.144,-4.141
7122,2,7122,36,-9.29,1.843,-6.675,-299.824,41.473,-32.206,0.9,0.40,0.6,-779.0,-8.980,2.182,-6.615,-300.29,41.552,-32.461,0.10,0.44,0.3,-779.0,2.649,91601.875,843.61,2.652,91605.718,843.188,7122,-6.675,843.61,-20474362.0,-2.197,2.70,17750.501,0.0,4.150,-4.139
7162,2,7162,40,-8.980,1.853,-6.675,-300.32,41.560,-32.128,0.10,0.42,0.3,-779.0,-8.886,2.189,-6.615,-299.707,41.698,-32.475,0.13,0.44,0.5,-779.0,2.648,91601.421,843.62,2.642,91597.820,842.879,7162,-6.675,843.62,-20741398.0,0.42,1.998,17768.833,0.0,4.157,-4.139
7198,2,7198,36,-9.1,2.124,-6.594,-299.637,41.502,-32.510,0.10,0.43,0.2,-779.0,-9.44,2.146,-6.529,-299.561,41.362,-32.271,0.11,0.46,0.5,-779.0,2.647,91601.0,843.22,2.647,91602.406,842.677,7198,-6.594,843.22,-20980256.0,-1.122,2.34,17784.986,0.0,4.150,-4.88
7239,2,7239,41,-8.973,2.132,-6.568,-299.830,41.572,-32.455,0.10,0.44,0.2,-779.0,-8.908,2.88,-6.522,-300.350,41.683,-32.607,0.8,0.42,0.5,-779.0,2.649,91601.898,842.960,2.652,91598.992,842.773,7239,-6.568,842.960,-21250082.0,-1.505,2.47,17802.921,0.0,4.150,-4.72
7287,2,7287,48,-8.977,2.156,-6.583,-299.921,41.584,-32.423,0.10,0.43,0.4,-779.0,-9.66,2.175,-6.637,-299.956,41.625,-32.300,0.9,0.40,0.7,-779.0,2.649,91601.921,842.837,2.652,91604.648,842.667,7287,-6.583,842.837,-21565734.0,-2.572,2.83,17823.619,0.0,4.150,-4.82
7326,2,7326,39,-8.991,2.137,-6.585,-299.763,41.593,-32.420,0.9,0.42,0.6,-779.0,-9.52,2.88,-6.622,-299.239,41.596,-32.446,0.7,0.39,0.6,-779.0,2.648,91602.148,842.754,2.647,91606.890,842.773,7326,-6.585,842.754,-21822538.0,-2.128,2.68,17840.156,0.0,4.157,-4.82
7362,2,7362,36,-9.33,2.111,-6.582,-299.701,41.531,-32.475,0.8,0.40,0.6,-779.0,-9.95,2.60,-6.601,-299.400,41.391,-32.753,0.6,0.36,0.9,-779.0,2.648,91602.171,842.793,2.642,91597.921,843.73,7362,-6.582,842.793,-22059562.0,1.79,1.968,17855.449,0.0,4.157,-4.81
7402,2,7402,40,-9.44,2.103,-6.602,-299.573,41.566,-32.522,0.8,0.39,0.6,-779.0,-9.102,2.103,-6.629,-298.918,41.537,-32.505,0.9,0.40,0.3,-779.0,2.646,91601.281,842.852,2.638,91597.921,842.976,7402,-6.602,842.852,-22323266.0,1.493,1.957,17872.343,0.0,4.157,-4.93
7438,2,7438,36,-9.93,2.94,-6.629,-299.356,41.461,-32.458,0.8,0.39,0.6,-779.0,-9.152,2.45,-6.658,-299.269,41.157,-32.285,0.9,0.41,0.5,-779.0,2.645,91601.718,842.914,2.647,91601.234,843.82,7438,-6.629,842.914,-22561452.0,1.715,1.951,17887.255,0.0,4.150,-4.110
7478,2,7478,40,-9.76,2.96,-6.625,-299.313,41.324,-32.613,0.8,0.41,0.4,-779.0,-8.980,2.182,-6.615,-299.736,40.938,-33.75,0.10,0.47,0.0,-779.0,2.643,91601.250,843.78,2.642,91602.304,843.486,7478,-6.625,843.78,-22826564.0,4.93,1.890,17903.892,0.0,4.150,-4.107
7514,2,7514,36,-9.85,2.119,-6.604,-299.374,41.277,-32.680,0.9,0.41,0.5,-779.0,-9.95,2.203,-6.515,-299.546,41.362,-32.782,0.10,0.43,0.7,-779.0,2.642,91600.578,843.199,2.638,91603.476,843.380,7514,-6.604,843.199,-23064700.0,3.373,1.908,17918.681,0.0,4.157,-4.94
7554,2,7554,40,-9.66,2.127,-6.599,-299.289,41.254,-32.592,0.9,0.43,0.3,-779.0,-9.1,2.103,-6.579,-298.976,41.274,-32.315,0.9,0.43,0.0,-779.0,2.642,91599.914,843.323,2.642,91594.617,843.689,7554,-6.599,843.323,-23328778.0,3.83,1.915,17935.11,0.0,4.157,-4.91
7590,2,7590,36,-9.59,2.132,-6.595,-299.421,41.93,-32.598,0.9,0.44,0.3,-779.0,-9.66,2.124,-6.608,-299.576,40.733,-32.534,0.6,0.47,0.2,-779.0,2.643,91601.0,843.386,2.647,91603.375,843.294,7590,-6.595,843.386,-23566292.0,1.766,1.949,17949.292,0.0,4.150,-4.89
7630,2,7630,40,-9.39,2.165,-6.581,-299.482,40.990,-32.624,0.9,0.44,0.3,-779.0,-9.52,2.210,-6.586,-299.576,40.646,-32.417,0.11,0.42,0.5,-779.0,2.644,91600.531,843.346,2.652,91598.890,842.879,7630,-6.581,843.346,-23829824.0,-1.16,2.31,17965.103,0.0,4.157,-4.80
7666,2,7666,36,-9.54,2.154,-6.579,-299.406,41.40,-32.455,0.8,0.43,0.5,-779.0,-9.59,2.132,-6.608,-299.356,41.186,-32.227,0.6,0.39,0.8,-779.0,2.645,91600.531,843.186,2.647,91602.304,842.686,7666,-6.579,843.186,-24066718.0,-4.445,2.153,17978.974,0.0,4.157,-4.79
7706,2,7706,40,-9.44,2.130,-6.596,-299.400,40.982,-32.394,0.8,0.42,0.5,-779.0,-9.44,2.81,-6.601,-299.517,41.69,-32.475,0.8,0.39,0.10,-779.0,2.647,91600.750,843.47,2.647,91604.546,842.686,7706,-6.596,843.47,-24330250.0,-3.472,2.116,17994.292,0.0,4.157,-4.90
7742,2,7742,36,-9.53,2.130,-6.609,-299.582,41.81,-32.437,0.8,0.43,0.5,-779.0,-9.44,2.103,-6.644,-299.883,41.771,-32.534,0.10,0.49,0.0,-779.0,2.648,91601.148,842.906,2.647,91596.648,842.985,7742,-6.609,842.906,-24567972.0,-3.911,2.132,18007.869,0.0,4.150,-4.98
7793,2,7793,51,-9.57,2.133,-6.618,-299.614,41.259,-32.470,0.9,0.43,0.5,-779.0,-9.87,2.139,-6.651,-299.736,41.625,-32.695,0.12,0.49,0.1,-779.0,2.648,91602.289,842.784,2.647,91609.31,842.686,7793,-6.618,842.784,-24905294.0,-2.381,2.76,18026.792,0.0,4.157,-4.103
7829,2,7829,36,-9.63,2.119,-6.622,-299.599,41.391,-32.478,0.9,0.42,0.5,-779.0,-9.80,2.139,-6.608,-299.503,41.303,-32.461,0.9,0.37,0.9,-779.0,2.647,91602.976,842.806,2.647,91602.304,842.985,7829,-6.622,842.806,-25143636.0,0.591,1.982,18040.78,0.0,4.150,-4.106
7869,2,7869,40,-9.66,2.123,-6.611,-299.573,41.411,-32.516,0.9,0.42,0.5,-779.0,-9.73,2.153,-6.550,-299.225,41.289,-32.417,0.8,0.38,0.6,-779.0,2.648,91602.523,842.763,2.652,91600.62,842.475,7869,-6.611,842.763,-25408316.0,-1.60,2.32,18054.968,0.0,4.150,-4.98
7905,2,7905,36,-9.69,2.134,-6.606,-299.573,41.511,-32.619,0.9,0.43,0.5,-779.0,-9.59,2.139,-6.579,-299.517,41.566,-32.987,0.8,0.41,0.10,-779.0,2.648,91601.835,842.802,2.647,91601.132,842.879,7905,-6.606,842.802,-25646244.0,1.69,1.968,18068.304,0.0,4.157,-4.96
7945,2,7945,40,-9.62,2.146,-6.598,-299.517,41.520,-32.551,0.9,0.40,0.6,-779.0,-9.8,2.160,-6.601,-299.605,41.815,-32.198,0.7,0.38,0.3,-779.0,2.649,91602.289,842.742,2.652,91598.890,842.686,7945,-6.598,842.742,-25910350.0,-1.492,2.46,18082.687,0.0,4.157,-4.90
7981,2,7981,36,-9.70,2.129,-6.576,-299.567,41.414,-32.540,0.8,0.38,0.7,-779.0,-9.131,2.53,-6.543,-299.985,41.99,-32.636,0.5,0.39,0.7,-779.0,2.651,91599.804,842.762,2.656,91596.648,842.783,7981,-6.576,842.762,-26147504.0,0.537,1.984,18096.164,0.0,4.157,-4.77
8021,2,8021,40,-9.37,2.124,-6.559,-299.541,41.502,-32.534,0.8,0.40,0.5,-779.0,-8.915,2.117,-6.522,-299.371,41.742,-32.432,0.12,0.43,0.0,-779.0,2.651,91600.39,842.881,2.647,91603.476,843.583,8021,-6.559,842.881,-26410232.0,2.990,1.917,18110.361,0.0,4.150,-4.66
8060,2,8060,39,-9.23,2.96,-6.562,-299.649,41.525,-32.396,0.9,0.41,0.3,-779.0,-9.1,2.9,-6.565,-299.766,41.406,-31.730,0.11,0.46,0.3,-779.0,2.650,91600.273,842.943,2.647,91601.234,842.783,8060,-6.562,842.943,-26666112.0,1.582,1.954,18123.937,0.0,4.144,-4.68
8096,2,8096,36,-9.14,2.101,-6.562,-299.690,41.657,-32.353,0.9,0.42,0.1,-779.0,-9.16,2.167,-6.579,-299.722,42.224,-32.768,0.8,0.41,0.2,-779.0,2.648,91599.851,842.984,2.638,91598.992,843.82,8096,-6.562,842.984,-26902360.0,1.129,1.967,18136.400,0.0,4.150,-4.68
8136,2,8136,40,-9.4,2.111,-6.561,-299.728,41.613,-32.323,0.8,0.43,0.0,-779.0,-8.958,2.210,-6.594,-299.795,41.596,-32.52,0.6,0.43,0.2,-779.0,2.647,91599.421,843.22,2.647,91596.757,842.879,8136,-6.561,843.22,-27164830.0,0.961,1.971,18150.175,0.0,4.150,-4.67
8172,2,8172,36,-8.983,2.146,-6.561,-299.748,41.642,-32.274,0.9,0.42,0.0,-779.0,-9.23,2.225,-6.543,-300.87,41.245,-32.388,0.7,0.38,0.4,-779.0,2.644,91599.890,843.80,2.642,91598.992,843.73,8172,-6.561,843.80,-27401026.0,1.610,1.953,18162.195,0.0,4.150,-4.67
8212,2,8212,40,-9.8,2.157,-6.578,-299.713,41.607,-32.215,0.8,0.41,0.2,-779.0,-9.44,2.175,-6.608,-299.196,41.566,-32.139,0.7,0.36,0.11,-779.0,2.644,91598.773,842.897,2.647,91597.921,842.667,8212,-6.578,842.897,-27663812.0,-4.582,2.159,18175.705,0.0,4.157,-4.78
8249,2,8249,37,-9.21,2.166,-6.594,-299.567,41.730,-32.353,0.7,0.39,0.6,-779.0,-9.66,2.53,-6.644,-299.35,42.19,-32.417,0.6,0.36,0.16,-779.0,2.642,91598.796,842.852,2.638,91601.335,842.561,8249,-6.594,842.852,-27907500.0,-1.195,2.37,18187.927,0.0,4.150,-4.88
8300,2,8300,51,-8.990,2.132,-6.581,-299.555,41.572,-32.265,0.7,0.38,0.9,-779.0,-8.858,1.995,-6.515,-299.663,41.435,-32.329,0.9,0.38,0.10,-779.0,2.643,91599.734,842.847,2.642,91603.679,843.55,8300,-6.581,842.847,-28243466.0,0.106,2.3,18204.705,0.0,4.157,-4.80
8336,2,8336,36,-9.1,2.78,-6.588,-299.432,41.648,-32.285,0.7,0.39,0.10,-779.0,-9.16,1.945,-6.629,-299.181,41.976,-32.154,0.7,0.46,0.7,-779.0,2.639,91600.437,842.762,2.624,91600.265,842.455,8336,-6.588,842.762,-28480516.0,-2.351,2.75,18215.996,0.0,4.150,-4.84
8376,2,8376,40,-9.0,2.60,-6.605,-299.304,41.739,-32.312,0.8,0.40,0.9,-779.0,-9.16,2.132,-6.629,-299.444,41.698,-32.519,0.9,0.43,0.0,-779.0,2.637,91601.585,842.720,2.633,91604.750,842.861,8376,-6.605,842.720,-28744392.0,-1.57,2.32,18228.640,0.0,4.150,-4.95
8412,2,8412,36,-9.4,2.48,-6.605,-299.354,41.712,-32.361,0.8,0.40,0.8,-779.0,-9.66,2.117,-6.608,-299.444,41.435,-32.388,0.7,0.38,0.6,-779.0,2.632,91601.617,842.737,2.624,91598.31,842.755,8412,-6.605,842.737,-28982192.0,0.484,1.985,18239.994,0.0,4.150,-4.95
8452,2,8452,40,-9.10,2.60,-6.595,-299.511,41.607,-32.388,0.9,0.41,0.6,-779.0,-9.95,2.110,-6.594,-299.824,41.493,-32.548,0.12,0.40,0.5,-779.0,2.631,91601.398,842.838,2.633,91600.265,843.63,8452,-6.595,842.838,-29246212.0,2.510,1.929,18252.882,0.0,4.150,-4.89
8488,2,8488,36,-9.53,2.97,-6.601,-299.663,41.575,-32.443,0.9,0.42,0.4,-779.0,-9.73,2.182,-6.543,-300.423,41.274,-32.607,0.10,0.41,0.1,-779.0,2.630,91600.921,842.841,2.638,91601.335,843.73,8488,-6.601,842.841,-29483752.0,0.100,1.997,18264.345,0.0,4.150,-4.92
8528,2,8528,40,-9.62,2.142,-6.605,-299.833,41.467,-32.505,0.9,0.40,0.2,-779.0,-9.59,2.167,-6.651,-300.29,41.435,-32.461,0.4,0.37,0.0,-779.0,2.632,91601.359,842.946,2.633,91602.406,842.976,8528,-6.605,842.946,-29747888.0,2.603,1.927,18277.78,0.0,4.150,-4.95
8564,2,8564,36,-9.66,2.156,-6.601,-299.611,41.403,-32.551,0.9,0.39,0.2,-779.0,-9.37,2.203,-6.608,-298.333,41.376,-32.753,0.9,0.38,0.1,-779.0,2.635,91600.445,842.988,2.647,91600.164,843.73,8564,-6.601,842.988,-29985610.0,1.174,1.965,18288.714,0.0,4.150,-4.92
8604,2,8604,40,-9.73,2.183,-6.581,-299.941,41.397,-32.671,0.9,0.40,0.2,-779.0,-9.102,2.254,-6.507,-301.96,41.406,-32.987,0.10,0.45,0.7,-779.0,2.637,91599.765,843.13,2.633,91594.617,842.879,8604,-6.581,843.13,-30249256.0,0.622,1.981,18301.355,0.0,4.150,-4.80
8640,2,8640,36,-9.54,2.186,-6.561,-300.14,41.385,-32.648,0.8,0.40,0.1,-779.0,-9.1,2.124,-6.493,-300.190,41.435,-32.432,0.9,0.40,0.1,-779.0,2.640,91599.78,842.976,2.647,91596.859,842.879,8640,-6.561,842.976,-30485814.0,-1.25,2.31,18312.630,0.0,4.157,-4.67
8680,2,8680,40,-9.41,2.196,-6.555,-299.912,41.455,-32.750,0.9,0.41,0.2,-779.0,-9.8,2.232,-6.515,-299.912,41.625,-33.118,0.11,0.43,0.9,-779.0,2.642,91599.265,842.916,2.647,91602.304,842.773,8680,-6.555,842.916,-30748140.0,-1.499,2.47,18324.753,0.0,4.150,-4.64
8716,2,8716,36,-9.30,2.183,-6.530,-299.935,41.476,-32.738,0.8,0.41,0.6,-779.0,-9.1,2.103,-6.529,-300.146,41.537,-32.402,0.3,0.39,0.16,-779.0,2.644,91599.929,842.856,2.647,91605.718,842.677,8716,-6.530,842.856,-30983690.0,-1.659,2.52,18335.523,0.0,4.157,-4.49
8756,2,8756,40,-9.27,2.149,-6.510,-300.222,41.487,-32.741,0.8,0.42,0.9,-779.0,-9.23,2.31,-6.507,-299.766,41.435,-32.768,0.6,0.42,0.14,-779.0,2.642,91600.390,842.839,2.638,91602.406,842.985,8756,-6.510,842.839,-31244524.0,0.439,2.13,18347.140,0.0,4.150,-4.36
8995,2,8995,239,-8.994,2.136,-6.522,-299.868,41.461,-32.598,0.7,0.39,0.9,-779.0,-8.937,2.189,-6.565,-299.327,41.274,-32.271,0.8,0.30,0.7,-779.0,2.644,91601.226,842.863,2.642,91598.843,843.0,8995,-6.522,842.863,-32801972.0,0.100,1.996,18415.828,0.0,4.150,-4.43
9361,2,9361,366,-8.988,2.137,-6.542,-299.739,41.464,-32.642,0.6,0.38,0.11,-779.0,-8.973,2.132,-6.594,-299.546,41.449,-32.651,0.4,0.34,0.10,-779.0,2.630,91601.882,842.883,2.577,91600.109,842.981,9361,-6.542,842.883,-35192796.0,0.55,1.998,18514.187,0.0,4.157,-4.56
9919,2,9919,558,-8.991,2.100,-6.559,-299.704,41.482,-32.546,0.6,0.37,0.11,-779.0,-9.23,2.45,-6.601,-299.736,41.712,-32.636,0.9,0.41,0.7,-779.0,2.613,91602.101,842.846,2.559,91603.421,842.585,9919,-6.559,842.846,-38848240.0,0.67,2.2,18652.527,0.0,4.150,-4.66
9962,2,9962,43,-9.23,2.124,-6.583,-299.672,41.449,-32.557,0.7,0.38,0.8,-779.0,-9.159,2.225,-6.651,-299.985,41.376,-32.461,0.8,0.42,0.1,-779.0,2.594,91601.359,842.912,2.554,91602.46,843.9,9962,-6.583,842.912,-39130828.0,1.542,1.955,18661.763,0.0,4.157,-4.82
9998,2,9998,36,-9.73,2.147,-6.622,-299.619,41.391,-32.470,0.8,0.37,0.6,-779.0,-9.274,2.146,-6.701,-299.503,41.142,-32.329,0.10,0.38,0.3,-779.0,2.582,91603.31,842.920,2.577,91610.710,843.26,9998,-6.622,842.920,-39368548.0,0.230,1.993,18669.212,0.0,4.150,-4.106
10038,2,10038,40,-9.99,2.154,-6.637,-299.614,41.487,-32.496,0.8,0.39,0.5,-779.0,-9.66,2.225,-6.637,-299.298,41.756,-32.402,0.9,0.38,0.5,-779.0,2.572,91602.484,842.869,2.591,91596.93,842.746,10038,-6.637,842.869,-39633744.0,-1.269,2.39,18678.80,0.0,4.157,-4.115
10074,2,10074,36,-9.87,2.154,-6.639,-299.614,41.446,-32.394,0.10,0.39,0.4,-779.0,-8.915,2.132,-6.608,-299.546,41.245,-32.139,0.12,0.38,0.3,-779.0,2.579,91602.976,842.822,2.615,91602.609,842.746,10074,-6.639,842.822,-39872732.0,-1.307,2.40,18686.910,0.0,4.157,-4.116
10114,2,10114,40,-9.67,2.162,-6.625,-299.649,41.426,-32.353,0.9,0.40,0.5,-779.0,-8.922,2.81,-6.529,-299.912,41.610,-32.432,0.6,0.42,0.11,-779.0,2.592,91602.578,842.878,2.624,91601.437,842.861,10114,-6.625,842.878,-40138044.0,1.379,1.960,18697.259,0.0,4.157,-4.107
10150,2,10150,36,-8.886,2.881,-6.438,-297.661,41.432,-32.233,0.9,0.38,0.6,-779.0,-8.255,5.821,-5.718,-290.46,41.406,-31.862,0.6,0.34,0.8,-779.0,2.608,91601.984,842.829,2.633,91599.93,842.764,10150,-6.438,842.829,-40373208.0,-1.359,2.42,18706.607,0.0,4.157,-3.992
10190,2,10190,40,-8.859,2.845,-6.413,-297.962,41.408,-32.250,0.8,0.41,0.6,-779.0,-9.138,1.966,-6.572,-301.8,41.26,-32.417,0.9,0.54,0.2,-779.0,2.619,91601.7,842.778,2.633,91605.820,842.773,10190,-6.413,842.778,-40630252.0,-1.266,2.39,18716.439,0.0,4.157,-3.976
10226,2,10226,36,-8.865,2.805,-6.411,-298.18,41.365,-32.341,0.9,0.43,0.4,-779.0,-9.95,2.24,-6.629,-299.576,41.537,-32.855,0.11,0.46,0.5,-779.0,2.629,91602.484,842.824,2.638,91603.476,842.976,10226,-6.411,842.824,-40861100.0,1.280,1.963,18724.800,0.0,4.157,-3.975
10266,2,10266,40,-8.876,2.806,-6.404,-298.102,41.330,-32.461,0.8,0.45,0.2,-779.0,-8.973,2.139,-6.572,-299.970,41.69,-32.738,0.7,0.47,0.2,-779.0,2.633,91603.343,842.911,2.638,91606.890,843.178,10266,-6.404,842.911,-41117424.0,2.165,1.939,18733.855,0.0,4.157,-3.970
10302,2,10302,36,-8.889,2.828,-6.428,-298.173,41.303,-32.391,0.7,0.45,0.1,-779.0,-8.987,2.189,-6.651,-300.263,41.479,-32.81,0.4,0.43,0.3,-779.0,2.637,91603.984,842.953,2.642,91604.648,843.73,10302,-6.428,842.953,-41348428.0,1.171,1.966,18741.925,0.0,4.157,-3.985
10342,2,10342,40,-9.52,2.68,-6.612,-300.154,41.213,-32.417,0.8,0.46,0.0,-779.0,-9.66,2.24,-6.637,-299.956,40.952,-31.993,0.7,0.39,0.5,-779.0,2.640,91604.882,842.995,2.647,91603.578,842.976,10342,-6.612,842.995,-41609260.0,1.60,1.969,18750.855,0.0,4.157,-4.99
10378,2,10378,36,-9.44,2.83,-6.625,-299.973,41.259,-32.309,0.7,0.43,0.1,-779.0,-9.102,2.38,-6.637,-300.102,41.259,-31.876,0.5,0.40,0.3,-779.0,2.642,91603.734,842.876,2.642,91600.62,842.175,10378,-6.625,842.876,-41847552.0,-3.321,2.110,18759.150,0.0,4.150,-4.107
10419,2,10419,41,-9.43,2.123,-6.621,-300.23,41.236,-32.195,0.7,0.42,0.1,-779.0,-9.87,2.225,-6.608,-299.824,41.420,-32.285,0.10,0.42,0.1,-779.0,2.643,91603.953,842.895,2.647,91604.546,843.73,10419,-6.621,842.895,-42119116.0,0.471,1.986,18768.382,0.0,4.157,-4.105
10468,2,10468,49,-9.69,2.123,-6.621,-300.84,41.242,-32.52,0.7,0.41,0.3,-779.0,-9.102,2.139,-6.572,-300.277,41.99,-32.22,0.7,0.40,0.5,-779.0,2.646,91603.515,842.853,2.652,91604.750,842.967,10468,-6.621,842.853,-42443560.0,0.864,2.26,18779.445,0.0,4.150,-4.105
10507,2,10507,39,-9.86,2.106,-6.618,-300.81,41.175,-31.981,0.8,0.41,0.3,-779.0,-9.73,2.103,-6.637,-300.248,41.142,-31.730,0.8,0.43,0.6,-779.0,2.645,91603.750,842.814,2.638,91605.820,842.879,10507,-6.618,842.814,-42701736.0,0.992,2.30,18787.867,0.0,4.150,-4.103
10543,2,10543,36,-9.76,2.119,-6.605,-300.37,41.297,-31.949,0.8,0.40,0.4,-779.0,-9.16,2.88,-6.572,-299.736,41.566,-31.832,0.8,0.34,0.8,-779.0,2.643,91603.78,842.735,2.638,91600.164,842.580,10543,-6.605,842.735,-42939768.0,-2.197,2.70,18795.650,0.0,4.157,-4.95
10583,2,10583,40,-9.69,2.129,-6.601,-299.991,41.330,-31.973,0.9,0.41,0.2,-779.0,-9.66,2.88,-6.615,-299.868,41.420,-31.993,0.9,0.45,0.6,-779.0,2.643,91603.750,842.854,2.642,91603.476,842.773,10583,-6.601,842.854,-43203904.0,2.987,1.917,18804.296,0.0,4.157,-4.92
10619,2,10619,36,-9.67,2.126,-6.617,-300.38,41.236,-31.897,0.9,0.42,0.0,-779.0,-9.80,2.210,-6.687,-300.58,40.952,-31.905,0.11,0.47,0.11,-779.0,2.642,91603.539,842.816,2.642,91603.476,842.879,10619,-6.617,842.816,-43441832.0,-1.76,2.33,18811.996,0.0,4.157,-4.102
10659,2,10659,40,-9.49,2.143,-6.619,-299.918,41.283,-31.894,0.9,0.42,0.0,-779.0,-9.8,2.225,-6.586,-299.678,41.332,-32.8,0.8,0.43,0.0,-779.0,2.642,91602.617,842.839,2.647,91600.164,843.82,10659,-6.619,842.839,-43706572.0,0.576,1.982,18820.720,0.0,4.157,-4.104
10695,2,10695,36,-9.21,2.173,-6.609,-299.842,41.303,-32.11,0.9,0.41,0.1,-779.0,-8.937,2.254,-6.586,-299.868,41.245,-32.315,0.7,0.36,0.14,-779.0,2.643,91601.15,842.719,2.647,91597.820,842.281,10695,-6.609,842.719,-43944708.0,-3.323,2.110,18828.714,0.0,4.157,-4.98
10735,2,10735,40,-9.24,2.175,-6.617,-299.853,41.315,-32.148,0.8,0.41,0.3,-779.0,-9.30,2.96,-6.608,-299.795,41.625,-32.519,0.5,0.32,0.17,-779.0,2.646,91601.890,842.860,2.652,91604.546,843.284,10735,-6.617,842.860,-44209244.0,3.517,1.904,18837.343,0.0,4.157,-4.102
10771,2,10771,36,-9.29,2.150,-6.615,-299.859,41.312,-32.180,0.7,0.39,0.8,-779.0,-9.87,1.966,-6.608,-299.897,41.406,-32.154,0.4,0.36,0.18,-779.0,2.647,91601.234,842.920,2.647,91600.164,843.73,10771,-6.615,842.920,-44447432.0,1.666,1.952,18845.183,0.0,4.157,-4.101
10811,2,10811,40,-9.30,2.103,-6.599,-299.885,41.411,-32.239,0.7,0.38,0.9,-779.0,-9.87,1.974,-6.608,-300.190,41.449,-32.198,0.10,0.42,0.1,-779.0,2.649,91601.15,842.960,2.652,91602.406,843.82,10811,-6.599,842.960,-44711740.0,1.14,1.970,18853.761,0.0,4.157,-4.91
10847,2,10847,36,-9.43,2.81,-6.596,-299.891,41.382,-32.277,0.7,0.39,0.7,-779.0,-9.73,2.117,-6.572,-299.707,41.186,-32.198,0.9,0.48,0.10,-779.0,2.648,91601.210,842.899,2.642,91601.132,842.773,10847,-6.596,842.899,-44949280.0,-1.715,2.54,18861.85,0.0,4.157,-4.90
10887,2,10887,40,-9.62,2.78,-6.592,-299.824,41.426,-32.271,0.8,0.41,0.4,-779.0,-9.30,2.239,-6.565,-299.532,41.464,-32.285,0.12,0.49,0.3,-779.0,2.648,91601.898,842.856,2.647,91601.234,842.69,10887,-6.592,842.856,-45213072.0,-1.57,2.32,18869.171,0.0,4.157,-4.87
10923,2,10923,36,-9.59,2.100,-6.592,-299.880,41.368,-32.230,0.8,0.44,0.2,-779.0,-9.16,2.203,-6.608,-300.73,41.332,-32.315,0.5,0.44,0.8,-779.0,2.646,91601.15,842.714,2.642,91600.164,842.571,10923,-6.592,842.714,-45450404.0,-3.960,2.134,18876.474,0.0,4.157,-4.87
10974,2,10974,51,-8.928,2.140,-6.635,-299.964,41.368,-32.277,0.10,0.44,0.4,-779.0,-8.434,2.167,-6.823,-300.321,41.406,-32.388,0.14,0.35,0.27,-779.0,2.645,91600.570,842.611,2.642,91597.921,842.561,10974,-6.635,842.611,-45787724.0,-2.4,2.63,18886.845,0.0,4.157,-4.114
11010,2,11010,36,-8.937,2.147,-6.628,-299.967,41.303,-32.306,0.10,0.41,0.8,-779.0,-9.131,2.9,-6.572,-300.204,41.128,-32.344,0.13,0.31,0.18,-779.0,2.642,91599.703,842.548,2.633,91598.31,842.764,11010,-6.628,842.548,-46026480.0,-1.766,2.55,18894.54,0.0,4.157,-4.109
11050,2,11050,40,-8.974,2.159,-6.674,-300.81,41.330,-32.420,0.11,0.40,0.10,-779.0,-9.260,2.175,-6.802,-300.277,41.318,-32.768,0.12,0.41,0.0,-779.0,2.639,91599.312,842.567,2.629,91599.203,842.870,11050,-6.674,842.567,-46292540.0,0.485,1.985,18902.109,0.0,4.157,-4.138
11086,2,11086,36,-8.961,2.140,-6.693,-300.102,41.394,-32.414,0.10,0.39,0.8,-779.0,-8.965,2.146,-6.658,-299.634,41.786,-32.256,0.9,0.45,0.9,-779.0,2.636,91600.906,842.766,2.633,91609.234,843.63,11086,-6.693,842.766,-46533156.0,5.523,1.857,18909.128,0.0,4.157,-4.149
11126,2,11126,40,-8.971,2.140,-6.701,-300.14,41.461,-32.440,0.13,0.38,0.6,-779.0,-9.66,2.203,-6.651,-299.634,41.669,-32.446,0.15,0.40,0.3,-779.0,2.633,91602.39,842.826,2.629,91605.820,842.870,11126,-6.701,842.826,-46801052.0,1.493,1.957,18916.888,0.0,4.157,-4.155
11162,2,11162,36,-9.87,2.136,-6.644,-299.850,41.411,-32.367,0.12,0.40,0.2,-779.0,-9.16,2.146,-6.536,-299.503,41.157,-32.22,0.10,0.43,0.6,-779.0,2.631,91603.406,842.866,2.633,91604.750,842.764,11162,-6.644,842.866,-47041280.0,1.125,1.967,18923.765,0.0,4.157,-4.119
11202,2,11202,40,-9.69,2.173,-6.638,-299.751,41.496,-32.309,0.10,0.41,0.1,-779.0,-9.37,2.196,-6.543,-299.707,41.552,-32.52,0.5,0.34,0.17,-779.0,2.632,91604.539,842.888,2.638,91603.679,842.870,11202,-6.638,842.888,-47306936.0,0.529,1.984,18931.574,0.0,4.150,-4.115
11238,2,11238,36,-9.29,2.154,-6.588,-299.748,41.598,-32.244,0.9,0.40,0.6,-779.0,-9.59,2.81,-6.550,-300.263,41.829,-32.446,0.6,0.36,0.19,-779.0,2.631,91606.523,842.967,2.624,91609.132,843.266,11238,-6.588,842.967,-47545020.0,2.200,1.938,18938.287,0.0,4.157,-4.84
11278,2,11278,40,-9.54,2.110,-6.561,-299.731,41.508,-32.347,0.8,0.39,0.10,-779.0,-9.95,1.923,-6.522,-299.546,41.332,-32.768,0.5,0.40,0.12,-779.0,2.629,91604.492,842.947,2.624,91599.93,842.967,11278,-6.561,842.947,-47808008.0,0.483,2.14,18946.339,0.0,4.157,-4.67
11317,2,11317,39,-9.64,2.74,-6.552,-299.704,41.458,-32.353,0.8,0.40,0.10,-779.0,-9.116,2.24,-6.608,-299.503,41.420,-32.475,0.12,0.48,0.1,-779.0,2.628,91604.46,842.905,2.619,91603.578,842.658,11317,-6.552,842.905,-48063720.0,-1.86,2.33,18953.796,0.0,4.157,-4.62
11353,2,11353,36,-9.77,2.65,-6.559,-299.672,41.502,-32.373,0.7,0.42,0.5,-779.0,-9.80,2.103,-6.572,-299.342,41.376,-32.125,0.9,0.52,0.20,-779.0,2.628,91603.148,842.905,2.633,91600.265,842.764,11353,-6.559,842.905,-48299736.0,0.1,1.999,18960.894,0.0,4.150,-4.66
11393,2,11393,40,-9.77,2.67,-6.552,-299.681,41.476,-32.388,0.8,0.46,0.0,-779.0,-9.37,2.203,-6.507,-299.751,41.420,-32.125,0.10,0.54,0.10,-779.0,2.625,91603.359,842.884,2.624,91604.750,842.764,11393,-6.552,842.884,-48561976.0,0.529,2.16,18968.294,0.0,4.157,-4.62
11430,2,11430,37,-9.69,2.103,-6.576,-299.491,41.388,-32.282,0.9,0.47,0.4,-779.0,-9.16,2.261,-6.673,-299.313,41.391,-31.920,0.11,0.42,0.3,-779.0,2.626,91602.31,842.884,2.629,91602.507,843.266,11430,-6.576,842.884,-48804868.0,0.1,2.0,18975.666,0.0,4.157,-4.77
11476,2,11476,46,-9.53,2.154,-6.595,-299.397,41.303,-32.230,0.9,0.47,0.5,-779.0,-9.16,2.182,-6.615,-299.79,40.909,-32.505,0.5,0.40,0.9,-779.0,2.627,91602.500,842.923,2.629,91601.437,843.160,11476,-6.595,842.923,-49107832.0,0.842,1.975,18984.414,0.0,4.157,-4.89
11513,2,11513,37,-9.33,2.192,-6.602,-299.541,41.327,-32.312,0.8,0.46,0.1,-779.0,-9.16,2.210,-6.644,-300.219,41.537,-32.885,0.4,0.42,0.17,-779.0,2.628,91602.546,843.23,2.624,91603.781,843.160,11513,-6.602,843.23,-49351996.0,2.706,1.924,18991.570,0.0,4.157,-4.93
11553,2,11553,40,-9.34,2.195,-6.609,-299.491,41.297,-32.294,0.7,0.43,0.5,-779.0,-9.87,2.117,-6.608,-299.93,41.230,-32.37,0.4,0.40,0.12,-779.0,2.627,91603.914,843.183,2.629,91607.93,843.565,11553,-6.609,843.183,-49616244.0,4.3,1.892,18998.937,0.0,4.157,-4.98
11589,2,11589,36,-9.26,2.185,-6.618,-299.374,41.353,-32.350,0.7,0.40,0.10,-779.0,-8.994,2.153,-6.550,-299.166,41.698,-32.402,0.8,0.35,0.14,-779.0,2.627,91604.359,843.162,2.624,91606.992,842.658,11589,-6.618,843.162,-49854352.0,0.588,2.17,19005.587,0.0,4.157,-4.103
11629,2,11629,40,-9.37,2.167,-6.595,-299.313,41.341,-32.499,0.6,0.39,0.12,-779.0,-9.73,2.175,-6.558,-299.6,41.332,-32.665,0.7,0.38,0.7,-779.0,2.627,91605.281,843.62,2.629,91607.93,842.764,11629,-6.595,843.62,-50118632.0,-2.507,2.81,19012.769,0.0,4.157,-4.89
11665,2,11665,36,-9.34,2.150,-6.586,-299.371,41.362,-32.572,0.6,0.40,0.10,-779.0,-9.1,2.96,-6.572,-299.371,41.11,-32.870,0.8,0.45,0.0,-779.0,2.626,91605.296,843.102,2.624,91601.539,843.362,11665,-6.586,843.102,-50355916.0,1.125,1.967,19019.417,0.0,4.157,-4.83
11705,2,11705,40,-9.52,2.123,-6.591,-299.82,41.353,-32.461,0.7,0.40,0.7,-779.0,-9.102,2.74,-6.665,-298.772,41.493,-32.329,0.7,0.43,0.3,-779.0,2.627,91605.945,843.21,2.629,91606.992,842.755,11705,-6.591,843.21,-50619476.0,-2.26,2.64,19026.640,0.0,4.150,-4.86
11741,2,11741,36,-9.143,1.676,-6.368,-296.726,41.160,-32.57,0.11,0.51,0.0,-779.0,-9.547,0.114,-5.495,-287.313,40.266,-30.20,0.22,0.93,0.25,-779.0,2.626,91604.812,842.819,2.624,91601.437,842.553,11741,-6.368,842.819,-50852752.0,-5.620,2.202,19033.95,0.0,4.150,-3.948
11781,2,11781,40,-9.159,1.676,-6.387,-296.901,41.28,-32.136,0.10,0.52,0.0,-779.0,-9.73,2.153,-6.644,-300.43,41.40,-32.797,0.7,0.41,0.8,-779.0,2.629,91603.234,842.819,2.638,91599.93,842.658,11781,-6.387,842.819,-51107872.0,0.3,2.0,19040.664,0.0,4.157,-3.960
11817,2,11817,36,-9.151,1.672,-6.385,-297.103,40.999,-32.174,0.11,0.53,0.2,-779.0,-9.30,2.153,-6.550,-300.14,41.186,-32.855,0.9,0.43,0.1,-779.0,2.629,91602.101,842.878,2.633,91601.437,843.63,11817,-6.385,842.878,-51337788.0,1.663,1.952,19047.353,0.0,4.150,-3.959
11857,2,11857,40,-9.179,1.679,-6.370,-297.144,41.46,-32.110,0.11,0.53,0.1,-779.0,-9.145,2.132,-6.493,-299.576,41.245,-32.548,0.9,0.45,0.4,-779.0,2.630,91601.867,842.799,2.629,91600.367,842.967,11857,-6.370,842.799,-51592908.0,-1.977,2.63,19054.382,0.0,4.157,-3.949
11893,2,11893,36,-9.175,1.684,-6.354,-297.234,41.31,-32.81,0.11,0.53,0.0,-779.0,-9.80,2.96,-6.586,-299.225,41.420,-32.183,0.9,0.41,0.9,-779.0,2.630,91601.843,842.741,2.629,91606.890,842.465,11893,-6.354,842.741,-51821948.0,-1.614,2.50,19060.585,0.0,4.157,-3.939
11933,2,11933,40,-9.70,2.130,-6.568,-299.693,41.221,-32.563,0.8,0.43,0.6,-779.0,-9.23,2.117,-6.565,-299.605,41.216,-32.432,0.5,0.43,0.7,-779.0,2.632,91601.828,842.905,2.633,91601.335,843.372,11933,-6.568,842.905,-52080396.0,4.96,1.890,19067.902,0.0,4.150,-4.72
11981,2,11981,48,-9.53,2.116,-6.548,-299.584,41.292,-32.461,0.8,0.43,0.5,-779.0,-8.987,2.81,-6.543,-299.503,41.391,-32.285,0.8,0.42,0.5,-779.0,2.633,91603.625,842.886,2.642,91608.62,842.561,11981,-6.548,842.886,-52395188.0,0.405,2.12,19076.95,0.0,4.150,-4.59
12020,2,12020,39,-9.50,2.110,-6.540,-299.394,41.324,-32.411,0.7,0.42,0.7,-779.0,-9.16,2.124,-6.515,-299.64,41.347,-32.607,0.4,0.38,0.9,-779.0,2.633,91603.390,842.766,2.633,91600.265,842.465,12020,-6.540,842.766,-52650424.0,-3.68,2.101,19082.886,0.0,4.150,-4.55
12056,2,12056,36,-9.56,2.94,-6.552,-299.237,41.324,-32.452,0.8,0.40,0.8,-779.0,-9.174,2.53,-6.550,-298.786,41.245,-32.753,0.13,0.37,0.10,-779.0,2.634,91603.601,842.768,2.633,91601.437,842.976,12056,-6.552,842.768,-52886104.0,0.50,1.998,19089.214,0.0,4.157,-4.62
12096,2,12096,40,-9.62,2.111,-6.538,-299.146,41.230,-32.461,0.7,0.40,0.8,-779.0,-9.109,2.182,-6.515,-298.772,40.952,-32.227,0.6,0.42,0.9,-779.0,2.636,91602.937,842.727,2.638,91603.578,842.263,12096,-6.538,842.727,-53147912.0,-1.10,2.31,19096.406,0.0,4.157,-4.53
12132,2,12132,36,-9.80,2.107,-6.553,-299.52,41.245,-32.452,0.8,0.41,0.7,-779.0,-9.116,2.96,-6.644,-299.137,41.289,-32.388,0.9,0.44,0.3,-779.0,2.636,91603.835,842.666,2.633,91605.820,843.63,12132,-6.553,842.666,-53383568.0,-1.712,2.54,19102.412,0.0,4.157,-4.63
12172,2,12172,40,-9.110,2.114,-6.566,-299.49,41.265,-32.452,0.8,0.40,0.6,-779.0,-9.138,2.117,-6.608,-299.488,41.493,-32.285,0.9,0.38,0.0,-779.0,2.635,91604.46,842.768,2.638,91609.132,843.73,12172,-6.566,842.768,-53645980.0,2.555,1.928,19109.335,0.0,4.157,-4.71
12208,2,12208,36,-9.109,2.96,-6.579,-299.105,41.283,-32.437,0.8,0.41,0.5,-779.0,-9.8,2.31,-6.579,-299.342,41.435,-32.534,0.6,0.42,0.1,-779.0,2.636,91605.585,842.911,2.638,91607.960,843.178,12208,-6.579,842.911,-53882616.0,3.963,1.893,19115.447,0.0,4.157,-4.79
12248,2,12248,40,-9.89,2.114,-6.585,-299.280,41.271,-32.332,0.7,0.41,0.4,-779.0,-9.73,2.146,-6.579,-299.663,41.186,-32.227,0.8,0.41,0.6,-779.0,2.638,91605.984,842.992,2.642,91603.476,843.380,12248,-6.585,842.992,-54145920.0,2.21,1.942,19122.457,0.0,4.144,-4.82
12284,2,12284,36,-9.77,2.101,-6.596,-299.359,41.382,-32.309,0.8,0.42,0.3,-779.0,-9.52,2.117,-6.572,-299.166,41.508,-32.110,0.9,0.44,0.5,-779.0,2.639,91606.421,842.974,2.642,91605.718,842.175,12284,-6.596,842.974,-54383204.0,0.486,2.14,19128.587,0.0,4.157,-4.90
12324,2,12324,40,-9.80,2.101,-6.585,-299.409,41.411,-32.356,0.8,0.41,0.4,-779.0,-9.131,2.96,-6.586,-299.386,41.435,-32.622,0.10,0.40,0.6,-779.0,2.642,91606.851,842.796,2.647,91607.960,842.175,12324,-6.585,842.796,-54646852.0,-4.443,2.153,19135.339,0.0,4.157,-4.82
12360,2,12360,36,-9.76,2.116,-6.585,-299.380,41.385,-32.440,0.8,0.41,0.5,-779.0,-9.116,2.189,-6.608,-299.342,41.362,-32.709,0.8,0.39,0.6,-779.0,2.644,91607.46,842.677,2.652,91610.101,842.475,12360,-6.585,842.677,-54883928.0,-3.323,2.110,19141.482,0.0,4.157,-4.82
12400,2,12400,40,-9.53,2.126,-6.583,-299.336,41.338,-32.449,0.9,0.40,0.6,-779.0,-8.894,2.81,-6.572,-299.123,41.201,-32.578,0.10,0.39,0.8,-779.0,2.644,91605.15,842.657,2.638,91597.820,843.82,12400,-6.583,842.657,-55147316.0,0.480,2.14,19148.632,0.0,4.157,-4.82
12437,2,12437,37,-9.17,2.97,-6.579,-299.277,41.303,-32.467,0.9,0.40,0.7,-779.0,-8.894,2.2,-6.558,-299.371,41.11,-32.315,0.7,0.38,0.9,-779.0,2.644,91604.117,842.538,2.642,91598.992,842.783,12437,-6.579,842.538,-55390844.0,-3.229,2.107,19154.917,0.0,4.157,-4.79
12488,2,12488,51,-9.77,2.126,-6.578,-299.403,41.341,-32.607,0.9,0.40,0.6,-779.0,-9.353,2.261,-6.565,-299.795,41.698,-32.812,0.11,0.43,0.3,-779.0,2.647,91602.343,842.698,2.656,91596.859,842.976,12488,-6.578,842.698,-55726372.0,3.141,1.913,19164.150,0.0,4.150,-4.78
12524,2,12524,36,-9.95,2.144,-6.589,-299.389,41.365,-32.569,0.9,0.43,0.8,-779.0,-9.217,2.189,-6.644,-299.313,41.552,-32.432,0.10,0.54,0.13,-779.0,2.647,91601.210,842.779,2.647,91602.304,842.580,12524,-6.589,842.779,-55963396.0,2.251,1.936,19170.455,0.0,4.157,-4.85
12564,2,12564,40,-9.80,2.134,-6.592,-299.336,41.414,-32.563,0.9,0.41,0.7,-779.0,-9.44,2.139,-6.622,-299.79,41.610,-32.680,0.9,0.33,0.1,-779.0,2.646,91600.546,842.939,2.647,91606.789,843.275,12564,-6.592,842.939,-56227044.0,4.2,1.892,19177.326,0.0,4.163,-4.87
12600,2,12600,36,-9.122,2.147,-6.601,-299.415,41.458,-32.508,0.9,0.42,0.7,-779.0,-9.102,2.146,-6.615,-299.517,41.420,-32.300,0.10,0.43,0.9,-779.0,2.649,91601.0,842.959,2.652,91600.62,843.178,12600,-6.601,842.959,-56464532.0,0.537,1.984,19183.394,0.0,4.157,-4.92
12640,2,12640,40,-9.149,2.165,-6.624,-299.479,41.596,-32.548,0.10,0.42,0.5,-779.0,-9.30,2.88,-6.673,-299.693,41.698,-32.519,0.11,0.38,0.2,-779.0,2.651,91601.875,843.38,2.652,91603.375,843.178,12640,-6.624,843.38,-56729040.0,1.977,1.943,19190.23,0.0,4.157,-4.107
12676,2,12676,36,-9.75,2.152,-6.634,-299.421,41.622,-32.443,0.10,0.42,0.6,-779.0,-8.980,2.196,-6.615,-299.503,41.829,-32.285,0.11,0.42,0.6,-779.0,2.652,91604.296,842.980,2.661,91608.929,842.686,12676,-6.634,842.980,-56967692.0,-1.608,2.50,19195.468,0.0,4.157,-4.113
12907,2,12907,231,-9.47,2.123,-6.624,-299.400,41.578,-32.537,0.10,0.39,0.5,-779.0,-9.80,2.45,-6.594,-299.210,41.332,-32.899,0.10,0.39,0.7,-779.0,2.654,91604.898,842.965,2.656,91605.359,842.507,12907,-6.624,842.965,-58499044.0,0.63,2.1,19232.919,0.0,4.157,-4.107
12943,2,12943,36,-9.52,2.103,-6.618,-299.394,41.484,-32.572,0.10,0.41,0.5,-779.0,-9.66,2.38,-6.594,-299.49,41.142,-32.855,0.6,0.41,0.0,-779.0,2.640,91603.468,842.755,2.577,91599.609,842.226,12943,-6.618,842.755,-58737412.0,-5.828,2.211,19237.806,0.0,4.157,-4.103
13842,2,13842,899,-9.50,2.87,-6.605,-299.380,41.452,-32.604,0.9,0.40,0.3,-779.0,-9.95,2.67,-6.550,-299.444,41.259,-32.461,0.8,0.40,0.2,-779.0,2.629,91603.671,842.719,2.601,91601.78,843.0,13842,-6.605,842.719,-64681592.0,0.39,2.1,19373.189,0.0,4.157,-4.95
13884,2,13884,42,-9.49,2.84,-6.585,-299.289,41.406,-32.522,0.10,0.42,0.4,-779.0,-9.23,2.74,-6.572,-299.239,41.464,-32.110,0.14,0.47,0.3,-779.0,2.615,91604.953,842.649,2.577,91609.742,842.824,13884,-6.585,842.649,-64958604.0,-1.685,2.53,19377.886,0.0,4.157,-4.82
13923,2,13923,39,-9.53,2.74,-6.583,-299.219,41.259,-32.551,0.10,0.42,0.3,-779.0,-9.1,2.146,-6.608,-299.152,41.99,-32.432,0.11,0.43,0.3,-779.0,2.602,91603.726,842.718,2.596,91602.812,843.35,13923,-6.583,842.718,-65215408.0,1.785,1.949,19382.898,0.0,4.157,-4.82
13959,2,13959,36,-9.63,2.80,-6.582,-299.354,41.157,-32.470,0.9,0.42,0.3,-779.0,-9.131,2.74,-6.586,-299.883,40.821,-32.490,0.8,0.40,0.4,-779.0,2.591,91603.859,842.808,2.605,91606.23,842.958,13959,-6.582,842.808,-65452408.0,2.505,1.930,19387.390,0.0,4.157,-4.81
13999,2,13999,40,-9.80,2.103,-6.572,-299.435,41.61,-32.309,0.10,0.43,0.4,-779.0,-9.152,2.153,-6.543,-299.459,40.660,-32.52,0.7,0.43,0.5,-779.0,2.602,91604.890,842.854,2.629,91604.750,842.455,13999,-6.572,842.854,-65715508.0,1.147,1.966,19393.583,0.0,4.157,-4.74
14035,2,14035,36,-9.112,2.130,-6.582,-299.479,41.128,-32.189,0.10,0.42,0.5,-779.0,-9.253,2.203,-6.601,-299.663,41.596,-31.862,0.10,0.35,0.8,-779.0,2.609,91605.601,842.971,2.638,91604.648,843.583,14035,-6.582,842.971,-65952300.0,3.241,1.911,19399.138,0.0,4.157,-4.81
14075,2,14075,40,-9.159,2.134,-6.617,-299.535,41.99,-32.300,0.9,0.40,0.6,-779.0,-9.260,2.96,-6.744,-299.517,41.318,-32.665,0.8,0.40,0.11,-779.0,2.622,91604.796,843.42,2.642,91605.718,843.178,14075,-6.617,843.42,-66216292.0,1.773,1.949,19405.896,0.0,4.150,-4.102
14111,2,14111,36,-9.184,2.139,-6.595,-299.605,41.131,-32.320,0.8,0.39,0.6,-779.0,-9.123,2.167,-6.500,-299.503,41.259,-32.534,0.7,0.36,0.0,-779.0,2.633,91604.906,843.32,2.652,91603.375,842.985,14111,-6.595,843.32,-66454116.0,0.279,2.8,19411.683,0.0,4.157,-4.89
14151,2,14151,40,-9.151,2.144,-6.589,-299.567,41.157,-32.326,0.8,0.39,0.7,-779.0,-8.965,2.103,-6.558,-299.693,40.952,-32.519,0.7,0.41,0.10,-779.0,2.642,91604.164,843.16,2.652,91602.304,842.879,14151,-6.589,843.16,-66717820.0,0.392,2.11,19418.42,0.0,4.157,-4.85
14187,2,14187,36,-9.129,2.137,-6.598,-299.660,41.277,-32.478,0.8,0.39,0.6,-779.0,-9.44,2.117,-6.586,-299.926,41.259,-32.812,0.10,0.40,0.0,-779.0,2.646,91603.648,843.1,2.647,91602.203,842.377,14187,-6.598,843.1,-66955204.0,0.434,2.13,19423.400,0.0,4.157,-4.90
14227,2,14227,40,-9.97,2.136,-6.637,-299.646,41.142,-32.569,0.8,0.40,0.6,-779.0,-9.95,2.196,-6.795,-299.590,40.923,-32.315,0.9,0.41,0.10,-779.0,2.649,91603.179,842.781,2.652,91602.304,842.483,14227,-6.637,842.781,-67219912.0,-5.500,2.197,19429.39,0.0,4.157,-4.115
14266,2,14266,39,-9.87,2.136,-6.614,-299.812,41.93,-32.522,0.9,0.38,0.5,-779.0,-9.209,2.96,-6.629,-300.350,41.69,-32.432,0.11,0.33,0.6,-779.0,2.652,91602.265,842.723,2.656,91601.132,842.889,14266,-6.614,842.723,-67478312.0,-1.485,2.46,19434.775,0.0,4.150,-4.100
14302,2,14302,36,-9.75,2.123,-6.631,-299.924,41.55,-32.548,0.10,0.39,0.5,-779.0,-9.59,2.103,-6.586,-300.58,41.69,-32.665,0.12,0.41,0.0,-779.0,2.654,91602.265,842.663,2.661,91603.375,842.686,14302,-6.631,842.663,-67716728.0,-1.658,2.52,19439.822,0.0,4.157,-4.111
14342,2,14342,40,-9.90,2.123,-6.637,-299.988,41.204,-32.554,0.10,0.39,0.4,-779.0,-9.44,2.103,-6.586,-300.14,41.698,-32.548,0.10,0.42,0.3,-779.0,2.656,91602.250,842.584,2.666,91602.203,842.483,14342,-6.637,842.584,-67982096.0,-1.977,2.63,19445.460,0.0,4.157,-4.115
14383,2,14383,41,-9.99,2.130,-6.642,-300.8,41.210,-32.528,0.10,0.40,0.4,-779.0,-9.87,2.153,-6.615,-300.29,41.289,-32.680,0.9,0.45,0.1,-779.0,2.659,91603.359,842.607,2.661,91607.757,842.493,14383,-6.642,842.607,-68254336.0,0.559,1.983,19451.91,0.0,4.163,-4.118
14422,2,14422,39,-9.86,2.110,-6.594,-300.17,41.256,-32.624,0.10,0.40,0.4,-779.0,-9.30,2.96,-6.550,-299.634,41.157,-32.797,0.10,0.39,0.11,-779.0,2.661,91603.335,842.647,2.661,91602.203,842.686,14422,-6.594,842.647,-68512456.0,1.42,1.969,19456.595,0.0,4.157,-4.88
14458,2,14458,36,-9.10,2.109,-6.571,-299.877,41.332,-32.648,0.9,0.44,0.4,-779.0,-8.829,2.88,-6.515,-299.649,41.449,-32.548,0.5,0.52,0.6,-779.0,2.662,91602.414,842.669,2.661,91596.546,842.995,14458,-6.571,842.669,-68749432.0,0.588,1.982,19461.746,0.0,4.157,-4.74
14498,2,14498,40,-9.23,2.94,-6.594,-299.719,41.359,-32.627,0.9,0.43,0.7,-779.0,-9.123,2.31,-6.701,-299.269,41.201,-32.563,0.10,0.39,0.12,-779.0,2.662,91602.609,842.831,2.661,91604.343,843.496,14498,-6.594,842.831,-69012736.0,4.48,1.891,19467.265,0.0,4.157,-4.88
14534,2,14534,36,-9.40,2.93,-6.606,-299.587,41.315,-32.636,0.10,0.43,0.6,-779.0,-9.131,2.96,-6.651,-299.356,41.479,-32.592,0.14,0.42,0.3,-779.0,2.662,91603.46,842.973,2.666,91604.445,843.197,14534,-6.606,842.973,-69250352.0,3.965,1.893,19472.175,0.0,4.157,-4.96
14574,2,14574,40,-9.49,2.83,-6.619,-299.459,41.321,-32.648,0.10,0.43,0.7,-779.0,-9.131,2.103,-6.680,-299.386,41.318,-32.738,0.9,0.43,0.3,-779.0,2.662,91603.289,842.993,2.661,91608.929,842.589,14574,-6.619,842.993,-69514888.0,0.483,1.985,19477.529,0.0,4.157,-4.104
14610,2,14610,36,-9.59,2.94,-6.619,-299.552,41.385,-32.648,0.9,0.45,0.6,-779.0,-9.80,2.153,-6.550,-300.102,41.479,-32.797,0.8,0.49,0.5,-779.0,2.663,91603.726,843.35,2.666,91604.343,842.898,14610,-6.619,843.35,-69753208.0,1.176,1.965,19482.380,0.0,4.157,-4.104
14650,2,14650,40,-9.118,2.94,-6.638,-299.500,41.435,-32.665,0.10,0.42,0.6,-779.0,-9.123,2.88,-6.608,-299.386,41.698,-32.636,0.7,0.35,0.7,-779.0,2.664,91605.734,842.935,2.666,91606.585,842.493,14650,-6.638,842.935,-70018376.0,-2.511,2.81,19487.289,0.0,4.157,-4.115
14686,2,14686,36,-9.66,2.103,-6.619,-299.538,41.414,-32.747,0.9,0.42,0.4,-779.0,-8.865,2.74,-6.608,-299.459,41.99,-32.972,0.7,0.42,0.2,-779.0,2.665,91604.406,842.815,2.666,91597.718,842.898,14686,-6.619,842.815,-70257024.0,-3.323,2.110,19492.312,0.0,4.157,-4.104
14726,2,14726,40,-8.984,2.110,-6.589,-299.669,41.429,-32.779,0.8,0.44,0.2,-779.0,-8.721,2.132,-6.500,-300.14,41.552,-32.753,0.7,0.48,0.5,-779.0,2.667,91604.390,842.674,2.675,91604.343,842.493,14726,-6.589,842.674,-70521216.0,-3.520,2.118,19497.603,0.0,4.157,-4.85
14762,2,14762,36,-8.955,2.104,-6.591,-299.786,41.446,-32.727,0.8,0.44,0.0,-779.0,-8.987,2.74,-6.687,-299.970,41.406,-32.475,0.9,0.44,0.6,-779.0,2.669,91603.15,842.736,2.675,91602.101,842.898,14762,-6.591,842.736,-70758472.0,1.714,1.951,19502.880,0.0,4.157,-4.86
14802,2,14802,40,-8.957,2.98,-6.622,-299.707,41.368,-32.627,0.8,0.41,0.1,-779.0,-9.87,2.124,-6.708,-299.707,41.84,-32.300,0.10,0.38,0.7,-779.0,2.669,91603.703,842.695,2.666,91607.757,842.695,14802,-6.622,842.695,-71022752.0,-1.16,2.31,19507.964,0.0,4.157,-4.106
14838,2,14838,36,-8.866,2.110,-6.617,-299.736,41.397,-32.619,0.8,0.43,0.0,-779.0,-8.671,2.146,-6.579,-299.532,41.844,-32.592,0.5,0.41,0.4,-779.0,2.670,91602.359,842.635,2.670,91599.859,842.193,14838,-6.617,842.635,-71261072.0,-1.661,2.52,19512.974,0.0,4.157,-4.102
14878,2,14878,40,-8.889,2.111,-6.632,-299.748,41.461,-32.496,0.8,0.45,0.1,-779.0,-8.980,2.81,-6.687,-299.517,41.420,-32.358,0.10,0.52,0.6,-779.0,2.671,91602.992,842.575,2.670,91600.929,842.598,14878,-6.632,842.575,-71526072.0,-1.496,2.47,19518.93,0.0,4.157,-4.112
14927,2,14927,49,-8.975,2.91,-6.631,-300.20,41.400,-32.537,0.9,0.42,0.3,-779.0,-9.152,2.31,-6.493,-301.373,41.245,-32.958,0.9,0.34,0.5,-779.0,2.670,91602.93,842.554,2.670,91599.859,842.387,14927,-6.631,842.554,-71851048.0,0.432,2.13,19524.595,0.0,4.150,-4.111
14966,2,14966,39,-9.3,2.81,-6.602,-300.90,41.335,-32.493,0.8,0.40,0.6,-779.0,-9.123,2.24,-6.543,-300.321,41.84,-32.256,0.7,0.36,0.10,-779.0,2.668,91602.125,842.614,2.666,91602.203,843.197,14966,-6.602,842.614,-72109112.0,1.532,1.956,19529.583,0.0,4.157,-4.93
15002,2,15002,36,-8.986,2.94,-6.558,-300.99,41.327,-32.537,0.8,0.40,0.8,-779.0,-9.1,2.189,-6.486,-299.751,41.40,-32.519,0.9,0.37,0.16,-779.0,2.669,91600.562,842.531,2.670,91599.960,842.281,15002,-6.558,842.531,-72346008.0,-2.297,2.74,19534.521,0.0,4.157,-4.66
15042,2,15042,40,-9.59,2.81,-6.550,-300.73,41.198,-32.513,0.9,0.39,0.9,-779.0,-9.37,2.81,-6.543,-299.400,41.201,-32.475,0.9,0.34,0.8,-779.0,2.667,91601.250,842.672,2.656,91603.273,842.898,15042,-6.550,842.672,-72608192.0,3.521,1.904,19539.441,0.0,4.157,-4.61
15078,2,15078,36,-9.109,2.90,-6.526,-300.190,41.84,-32.496,0.8,0.36,0.9,-779.0,-9.231,2.124,-6.565,-300.102,40.850,-32.271,0.7,0.37,0.7,-779.0,2.668,91601.484,842.713,2.675,91602.101,842.801,15078,-6.526,842.713,-72843584.0,1.125,1.967,19544.68,0.0,4.157,-4.46
15118,2,15118,40,-9.90,2.113,-6.536,-299.888,41.119,-32.373,0.9,0.37,0.10,-779.0,-9.59,2.146,-6.543,-299.868,41.420,-32.344,0.12,0.40,0.6,-779.0,2.667,91602.375,842.774,2.666,91604.343,842.695,15118,-6.536,842.774,-73104848.0,1.541,1.955,19548.941,0.0,4.157,-4.52
15154,2,15154,36,-9.52,2.133,-6.538,-299.725,41.169,-32.367,0.9,0.37,0.8,-779.0,-8.930,2.124,-6.550,-299.503,41.332,-32.227,0.7,0.37,0.4,-779.0,2.667,91603.468,842.655,2.666,91607.656,842.598,15154,-6.538,842.655,-73340192.0,-3.326,2.110,19553.136,0.0,4.157,-4.53
15194,2,15194,40,-9.20,2.107,-6.550,-299.655,41.230,-32.358,0.9,0.38,0.5,-779.0,-8.843,2.60,-6.550,-299.400,41.347,-32.475,0.11,0.44,0.0,-779.0,2.665,91604.328,842.761,2.661,91604.242,842.810,15194,-6.550,842.761,-73601976.0,2.647,1.926,19557.970,0.0,4.157,-4.61
15230,2,15230,36,-9.6,2.97,-6.549,-299.739,41.283,-32.353,0.9,0.40,0.5,-779.0,-8.965,2.31,-6.536,-299.824,41.464,-32.446,0.8,0.42,0.7,-779.0,2.668,91604.85,842.619,2.670,91602.101,842.193,15230,-6.549,842.619,-73837784.0,-3.918,2.133,19562.587,0.0,4.157,-4.60
15270,2,15270,40,-8.961,2.94,-6.561,-299.695,41.370,-32.318,0.9,0.42,0.3,-779.0,-9.8,2.110,-6.622,-299.883,41.289,-32.95,0.9,0.48,0.1,-779.0,2.667,91604.773,842.620,2.670,91605.515,842.801,15270,-6.561,842.620,-74099992.0,0.3,1.999,19567.388,0.0,4.150,-4.67
15306,2,15306,36,-8.942,2.80,-6.555,-299.695,41.318,-32.285,0.8,0.42,0.3,-779.0,-8.965,2.74,-6.515,-299.868,41.157,-32.183,0.7,0.40,0.2,-779.0,2.668,91604.984,842.641,2.670,91605.414,842.801,15306,-6.555,842.641,-74336088.0,0.586,1.982,19571.923,0.0,4.157,-4.64
15346,2,15346,40,-8.948,2.80,-6.572,-299.687,41.335,-32.344,0.8,0.43,0.4,-779.0,-8.958,2.124,-6.637,-299.459,41.420,-32.519,0.7,0.40,0.9,-779.0,2.668,91604.984,842.660,2.670,91607.656,842.695,15346,-6.572,842.660,-74598640.0,0.482,1.985,19576.986,0.0,4.157,-4.74
15382,2,15382,36,-8.987,2.101,-6.572,-299.599,41.262,-32.391,0.9,0.41,0.6,-779.0,-9.37,2.167,-6.550,-298.962,40.982,-32.709,0.13,0.38,0.10,-779.0,2.671,91605.882,842.498,2.675,91608.726,842.0,15382,-6.572,842.498,-74835248.0,-4.496,2.155,19581.302,0.0,4.157,-4.74
15433,2,15433,51,-9.1,2.124,-6.582,-299.476,41.216,-32.391,0.8,0.41,0.6,-779.0,-9.37,2.146,-6.586,-299.210,41.230,-32.446,0.5,0.38,0.7,-779.0,2.671,91606.351,842.595,2.670,91604.445,842.677,15433,-6.582,842.595,-75170704.0,1.895,1.946,19587.621,0.0,4.157,-4.81
15469,2,15469,36,-9.4,2.139,-6.573,-299.371,41.242,-32.470,0.7,0.40,0.7,-779.0,-9.23,2.182,-6.579,-299.356,41.420,-32.490,0.5,0.43,0.4,-779.0,2.671,91604.554,842.554,2.670,91596.546,842.598,15469,-6.573,842.554,-75407520.0,-1.124,2.34,19592.392,0.0,4.157,-4.75
15509,2,15509,40,-9.7,2.150,-6.611,-299.318,41.294,-32.414,0.9,0.40,0.7,-779.0,-8.980,2.132,-6.701,-299.605,41.420,-31.905,0.13,0.43,0.6,-779.0,2.670,91604.789,842.574,2.666,91606.585,842.898,15509,-6.611,842.574,-75671224.0,0.486,1.985,19597.230,0.0,4.157,-4.98
15545,2,15545,36,-9.24,2.142,-6.606,-299.353,41.297,-32.361,0.9,0.41,0.6,-779.0,-9.44,2.81,-6.615,-299.634,41.435,-32.256,0.10,0.44,0.5,-779.0,2.670,91603.914,842.674,2.670,91603.273,843.197,15545,-6.606,842.674,-75909152.0,2.785,1.922,19601.947,0.0,4.150,-4.96
15585,2,15585,40,-9.27,2.139,-6.608,-299.359,41.406,-32.414,0.8,0.41,0.5,-779.0,-9.52,2.153,-6.558,-298.991,41.522,-32.972,0.10,0.38,0.2,-779.0,2.670,91602.796,842.834,2.675,91603.171,842.801,15585,-6.608,842.834,-76173456.0,4.5,1.892,19607.248,0.0,4.157,-4.97
15621,2,15621,36,-9.39,2.132,-6.618,-299.353,41.525,-32.411,0.9,0.42,0.5,-779.0,-9.95,2.110,-6.637,-299.181,41.829,-32.432,0.7,0.41,0.8,-779.0,2.670,91601.648,842.940,2.670,91598.687,843.206,15621,-6.618,842.940,-76411536.0,2.938,1.918,19611.998,0.0,4.157,-4.103
15661,2,15661,40,-9.80,2.103,-6.602,-299.394,41.593,-32.399,0.10,0.40,0.7,-779.0,-9.231,2.38,-6.500,-299.561,41.756,-32.432,0.10,0.33,0.13,-779.0,2.671,91604.328,843.21,2.675,91609.898,843.4,15661,-6.602,843.21,-76675960.0,2.29,1.942,19616.470,0.0,4.157,-4.93
15697,2,15697,36,-9.72,2.78,-6.581,-299.278,41.616,-32.493,0.9,0.40,0.6,-779.0,-8.937,2.9,-6.594,-299.20,41.537,-32.373,0.8,0.44,0.0,-779.0,2.673,91603.171,842.901,2.675,91600.828,842.299,15697,-6.581,842.901,-76913272.0,-3.328,2.110,19621.82,0.0,4.157,-4.80
15737,2,15737,40,-9.40,2.97,-6.550,-299.178,41.625,-32.543,0.9,0.39,0.5,-779.0,-8.886,2.175,-6.464,-299.137,41.479,-32.505,0.10,0.39,0.2,-779.0,2.674,91602.476,842.805,2.675,91599.757,842.714,15737,-6.550,842.805,-77175912.0,-2.420,2.78,19626.5,0.0,4.157,-4.61
15773,2,15773,36,-9.75,2.94,-6.556,-299.210,41.543,-32.534,0.9,0.39,0.7,-779.0,-9.224,2.139,-6.586,-299.152,41.113,-32.928,0.11,0.39,0.11,-779.0,2.674,91602.890,842.867,2.675,91605.312,843.110,15773,-6.556,842.867,-77411848.0,1.717,1.951,19630.292,0.0,4.157,-4.65
15813,2,15813,40,-9.100,2.97,-6.548,-299.251,41.420,-32.554,0.10,0.38,0.7,-779.0,-9.224,2.124,-6.594,-299.386,41.216,-32.534,0.9,0.34,0.11,-779.0,2.677,91604.453,842.706,2.684,91606.484,842.405,15813,-6.548,842.706,-77673944.0,-4.8,2.136,19634.777,0.0,4.157,-4.59
15849,2,15849,36,-9.40,2.117,-6.563,-299.166,41.300,-32.648,0.10,0.39,0.5,-779.0,-8.930,2.139,-6.579,-299.137,41.157,-32.899,0.10,0.38,0.3,-779.0,2.677,91603.984,842.546,2.675,91607.554,842.202,15849,-6.563,842.546,-77909960.0,-4.452,2.154,19639.0,0.0,4.157,-4.69
15889,2,15889,40,-9.62,2.136,-6.561,-299.310,41.294,-32.689,0.9,0.37,0.6,-779.0,-9.44,2.103,-6.579,-299.736,41.508,-32.578,0.6,0.37,0.2,-779.0,2.679,91604.226,842.749,2.684,91602.0,843.312,15889,-6.561,842.749,-78172456.0,5.65,1.868,19644.29,0.0,4.157,-4.67
15940,2,15940,51,-9.82,2.140,-6.582,-299.465,41.192,-32.841,0.8,0.37,0.6,-779.0,-8.987,2.196,-6.572,-299.912,40.967,-33.265,0.5,0.35,0.5,-779.0,2.680,91605.351,842.807,2.680,91605.414,843.4,15940,-6.582,842.807,-78507616.0,1.136,1.967,19649.962,0.0,4.157,-4.81
15976,2,15976,36,-9.20,2.143,-6.588,-299.482,41.172,-32.841,0.7,0.36,0.4,-779.0,-8.915,2.153,-6.615,-299.239,41.11,-32.928,0.3,0.37,0.2,-779.0,2.679,91605.140,842.706,2.670,91604.242,842.608,15976,-6.588,842.706,-78744688.0,-2.787,2.91,19654.99,0.0,4.157,-4.84
16016,2,16016,40,-8.961,2.142,-6.586,-299.546,41.224,-32.803,0.7,0.38,0.2,-779.0,-8.930,2.117,-6.586,-299.707,41.479,-32.344,0.9,0.42,0.0,-779.0,2.676,91603.562,842.847,2.670,91598.585,843.110,16016,-6.586,842.847,-79008192.0,3.524,1.904,19659.95,0.0,4.157,-4.83
16052,2,16052,36,-8.996,2.137,-6.604,-299.561,41.277,-32.817,0.7,0.38,0.3,-779.0,-9.102,2.117,-6.665,-299.210,41.420,-32.972,0.10,0.37,0.5,-779.0,2.675,91603.554,842.948,2.670,91607.554,842.704,16052,-6.604,842.948,-79245632.0,2.788,1.922,19663.375,0.0,4.157,-4.94
16092,2,16092,40,-9.19,2.133,-6.604,-299.491,41.277,-32.794,0.8,0.39,0.2,-779.0,-9.159,2.81,-6.579,-299.386,41.508,-32.461,0.11,0.44,0.0,-779.0,2.673,91604.7,842.948,2.675,91604.242,843.312,16092,-6.604,842.948,-79509792.0,0.0,2.0,19667.851,0.0,4.157,-4.94
16128,2,16128,36,-9.19,2.114,-6.594,-299.321,41.350,-32.645,0.9,0.41,0.3,-779.0,-8.987,2.103,-6.522,-299.64,41.332,-32.519,0.9,0.43,0.7,-779.0,2.672,91604.15,842.766,2.675,91605.414,842.97,16128,-6.594,842.766,-79747360.0,-5.40,2.178,19671.818,0.0,4.157,-4.88
16168,2,16168,40,-9.33,2.116,-6.592,-299.380,41.411,-32.551,0.10,0.41,0.4,-779.0,-8.987,2.160,-6.608,-299.532,41.318,-32.461,0.8,0.38,0.11,-779.0,2.675,91604.15,842.745,2.684,91604.242,842.502,16168,-6.592,842.745,-80011096.0,0.529,2.16,19676.654,0.0,4.157,-4.87
16204,2,16204,36,-9.63,2.123,-6.591,-299.371,41.382,-32.566,0.8,0.41,0.5,-779.0,-9.80,2.153,-6.579,-299.663,41.332,-32.417,0.4,0.45,0.4,-779.0,2.678,91606.39,842.644,2.684,91608.726,842.608,16204,-6.591,842.644,-80248408.0,-2.792,2.91,19680.509,0.0,4.157,-4.86
16244,2,16244,40,-9.47,2.110,-6.569,-299.491,41.391,-32.467,0.8,0.43,0.5,-779.0,-9.23,2.53,-6.558,-299.809,41.464,-32.475,0.8,0.46,0.2,-779.0,2.680,91605.140,842.766,2.680,91603.70,843.312,16244,-6.569,842.766,-80511624.0,3.42,1.916,19685.570,0.0,4.157,-4.73
16280,2,16280,36,-9.19,2.134,-6.562,-299.500,41.286,-32.455,0.7,0.43,0.5,-779.0,-9.16,2.203,-6.543,-299.429,40.982,-32.402,0.7,0.44,0.4,-779.0,2.681,91605.140,842.666,2.684,91604.242,842.810,16280,-6.562,842.666,-80748000.0,-2.788,2.91,19689.738,0.0,4.157,-4.68
16320,2,16320,40,-9.19,2.142,-6.576,-299.584,41.262,-32.417,0.7,0.42,0.6,-779.0,-8.987,2.139,-6.594,-299.488,41.216,-32.329,0.7,0.38,0.7,-779.0,2.683,91605.117,842.689,2.684,91605.312,842.212,16320,-6.576,842.689,-81010784.0,0.578,1.982,19694.482,0.0,4.157,-4.77
16356,2,16356,36,-9.13,2.106,-6.575,-299.619,41.256,-32.443,0.7,0.42,0.5,-779.0,-8.958,1.981,-6.601,-299.707,41.289,-32.592,0.7,0.40,0.10,-779.0,2.682,91605.117,842.710,2.680,91604.242,842.608,16356,-6.575,842.710,-81247520.0,0.590,1.982,19698.564,0.0,4.157,-4.76
16396,2,16396,40,-9.14,2.88,-6.576,-299.532,41.268,-32.481,0.8,0.43,0.5,-779.0,-9.87,2.67,-6.586,-299.225,41.391,-32.607,0.10,0.49,0.2,-779.0,2.682,91605.328,842.770,2.684,91609.796,842.907,16396,-6.576,842.770,-81510568.0,1.493,1.957,19703.142,0.0,4.157,-4.77
16635,2,16635,239,-9.3,2.84,-6.579,-299.517,41.233,-32.408,0.8,0.43,0.5,-779.0,-8.965,2.31,-6.572,-299.736,41.289,-32.110,0.8,0.43,0.0,-779.0,2.683,91604.195,842.674,2.684,91597.367,842.834,16635,-6.579,842.674,-83082768.0,0.400,2.12,19730.333,0.0,4.157,-4.79
17004,2,17004,369,-9.3,2.64,-6.598,-299.658,41.294,-32.434,0.9,0.42,0.4,-779.0,-9.16,2.103,-6.637,-300.131,41.289,-32.534,0.10,0.43,0.1,-779.0,2.668,91604.890,842.714,2.610,91607.703,843.9,17004,-6.598,842.714,-85514120.0,0.107,1.996,19769.945,0.0,4.157,-4.90
17565,2,17565,561,-8.998,2.53,-6.609,-299.704,41.368,-32.455,0.8,0.43,0.5,-779.0,-8.965,2.81,-6.651,-299.722,41.581,-32.432,0.6,0.39,0.10,-779.0,2.647,91604.703,842.692,2.577,91604.390,842.101,17565,-6.609,842.692,-89219016.0,0.39,2.1,19828.388,0.0,4.157,-4.98
17608,2,17608,43,-9.4,2.78,-6.589,-299.593,41.406,-32.382,0.9,0.43,0.4,-779.0,-8.987,2.110,-6.500,-299.152,41.479,-32.227,0.9,0.43,0.6,-779.0,2.629,91605.578,842.717,2.587,91608.570,842.737,17608,-6.589,842.717,-89502808.0,0.598,1.982,19831.427,0.0,4.157,-4.85
17644,2,17644,36,-8.998,2.84,-6.591,-299.646,41.373,-32.291,0.9,0.42,0.4,-779.0,-9.59,2.96,-6.594,-299.488,41.230,-32.154,0.9,0.40,0.5,-779.0,2.613,91604.828,842.606,2.605,91606.125,842.350,17644,-6.591,842.606,-89740064.0,-3.94,2.102,19834.117,0.0,4.157,-4.86
17684,2,17684,40,-9.11,2.103,-6.596,-299.701,41.330,-32.186,0.9,0.42,0.5,-779.0,-9.30,2.124,-6.601,-300.14,41.69,-31.584,0.11,0.44,0.1,-779.0,2.602,91606.78,842.675,2.629,91603.578,843.178,17684,-6.596,842.675,-90003824.0,1.725,1.950,19837.296,0.0,4.157,-4.90
17720,2,17720,36,-9.17,2.97,-6.595,-299.584,41.280,-32.186,0.9,0.41,0.4,-779.0,-9.44,2.74,-6.629,-299.546,41.40,-32.534,0.8,0.40,0.0,-779.0,2.608,91604.984,842.528,2.642,91602.304,842.272,17720,-6.595,842.528,-90241288.0,-4.96,2.140,19841.550,0.0,4.157,-4.89
17760,2,17760,40,-9.23,2.117,-6.591,-299.582,41.183,-32.133,0.9,0.41,0.3,-779.0,-8.994,2.182,-6.629,-299.707,41.99,-32.168,0.9,0.41,0.4,-779.0,2.625,91605.0,842.645,2.661,91604.445,842.686,17760,-6.591,842.645,-90505024.0,2.925,1.919,19846.945,0.0,4.157,-4.86
17796,2,17796,36,-9.41,2.121,-6.615,-299.643,41.137,-32.130,0.10,0.43,0.4,-779.0,-9.80,2.132,-6.622,-299.459,41.245,-32.212,0.11,0.48,0.12,-779.0,2.639,91605.78,842.615,2.656,91608.929,842.589,17796,-6.615,842.615,-90742744.0,0.820,2.25,19851.572,0.0,4.157,-4.101
17836,2,17836,40,-9.72,2.124,-6.622,-299.628,41.43,-32.84,0.10,0.43,0.3,-779.0,-9.209,2.110,-6.629,-299.415,40.762,-31.920,0.10,0.42,0.2,-779.0,2.652,91604.515,842.725,2.670,91603.273,842.898,17836,-6.622,842.725,-91007512.0,2.740,1.924,19856.816,0.0,4.157,-4.106
17872,2,17872,36,-9.67,2.142,-6.619,-299.494,41.37,-32.168,0.10,0.43,0.3,-779.0,-9.8,2.210,-6.586,-299.342,41.40,-32.8,0.11,0.44,0.1,-779.0,2.660,91606.429,842.790,2.670,91613.210,843.506,17872,-6.619,842.790,-91245880.0,1.819,1.948,19860.755,0.0,4.157,-4.104
17912,2,17912,40,-9.62,2.156,-6.596,-299.412,41.58,-32.49,0.10,0.43,0.4,-779.0,-9.16,2.146,-6.515,-299.137,41.142,-31.935,0.9,0.41,0.2,-779.0,2.665,91606.375,842.917,2.666,91602.0,842.907,17912,-6.596,842.917,-91510216.0,3.176,1.912,19865.302,0.0,4.157,-4.90
17948,2,17948,36,-9.76,2.139,-6.585,-299.415,40.973,-32.8,0.9,0.43,0.5,-779.0,-9.66,2.96,-6.572,-299.722,40.675,-31.964,0.5,0.42,0.9,-779.0,2.668,91606.546,842.983,2.680,91605.312,843.13,17948,-6.585,842.983,-91747496.0,1.812,1.948,19869.248,0.0,4.157,-4.82
17988,2,17988,40,-9.53,2.120,-6.579,-299.441,40.876,-31.984,0.9,0.42,0.3,-779.0,-8.965,2.38,-6.594,-299.590,40.762,-32.95,0.8,0.43,0.3,-779.0,2.674,91606.62,842.948,2.684,91606.484,842.415,17988,-6.579,842.948,-92010800.0,0.874,2.26,19873.750,0.0,4.157,-4.79
18024,2,18024,36,-9.19,2.113,-6.571,-299.555,40.906,-32.11,0.8,0.42,0.3,-779.0,-9.37,2.74,-6.586,-299.985,40.909,-32.52,0.8,0.39,0.3,-779.0,2.677,91606.656,842.912,2.684,91606.281,842.722,18024,-6.571,842.912,-92247512.0,0.976,2.30,19877.412,0.0,4.157,-4.74
18065,2,18065,41,-8.802,1.958,-8.332,-297.278,40.672,-31.581,0.10,0.57,0.4,-779.0,-7.925,1.435,-15.394,-287.956,39.871,-29.859,0.20,0.121,0.40,-779.0,2.681,91604.843,842.656,2.689,91604.140,842.221,18065,-8.332,842.656,-92553040.0,-6.264,2.231,19882.464,0.0,4.157,-5.166
18114,2,18114,49,-8.799,1.943,-8.344,-297.448,40.675,-31.648,0.11,0.57,0.4,-779.0,-9.1,2.74,-6.572,-299.985,41.157,-32.271,0.13,0.41,0.3,-779.0,2.685,91606.398,842.596,2.689,91609.796,842.608,18114,-8.344,842.596,-92961624.0,-1.219,2.37,19888.625,0.0,4.157,-5.173
18153,2,18153,39,-8.806,1.939,-8.341,-297.497,40.713,-31.762,0.11,0.57,0.4,-779.0,-9.102,2.74,-6.558,-299.970,40.865,-32.534,0.8,0.42,0.5,-779.0,2.685,91607.62,842.598,2.680,91608.625,843.22,18153,-8.341,842.598,-93286992.0,0.46,1.998,19893.423,0.0,4.157,-5.171
18189,2,18189,36,-8.839,1.945,-8.347,-297.474,40.821,-31.745,0.11,0.57,0.4,-779.0,-9.131,2.67,-6.622,-299.473,41.303,-32.8,0.7,0.43,0.3,-779.0,2.685,91607.257,842.758,2.684,91607.453,843.216,18189,-8.347,842.758,-93587384.0,4.448,1.882,19898.82,0.0,4.157,-5.175
18229,2,18229,40,-8.830,1.948,-8.345,-297.322,40.929,-31.750,0.12,0.58,0.4,-779.0,-8.994,2.88,-6.579,-299.225,41.449,-32.81,0.10,0.45,0.5,-779.0,2.686,91606.828,842.696,2.689,91604.140,842.415,18229,-8.345,842.696,-93921240.0,-1.538,2.48,19903.205,0.0,4.157,-5.174
18265,2,18265,36,-9.47,2.81,-6.582,-299.538,41.198,-32.239,0.9,0.42,0.3,-779.0,-9.8,2.103,-6.579,-299.35,41.216,-32.300,0.9,0.40,0.0,-779.0,2.685,91606.835,842.897,2.684,91604.140,843.224,18265,-6.582,842.897,-94189944.0,5.571,1.856,19907.376,0.0,4.157,-4.81
18305,2,18305,40,-9.47,2.86,-6.585,-299.345,41.218,-32.113,0.8,0.43,0.3,-779.0,-9.1,2.96,-6.586,-299.20,41.259,-31.642,0.7,0.43,0.2,-779.0,2.686,91605.671,842.960,2.694,91604.39,842.925,18305,-6.585,842.960,-94453304.0,1.586,1.954,19911.693,0.0,4.163,-4.82
18341,2,18341,36,-9.62,2.88,-6.599,-299.245,41.289,-31.999,0.8,0.43,0.4,-779.0,-9.174,2.88,-6.629,-299.473,41.216,-31.964,0.8,0.43,0.7,-779.0,2.690,91605.640,842.841,2.698,91608.414,842.424,18341,-6.599,842.841,-94690640.0,-3.323,2.110,19915.384,0.0,4.157,-4.91
18381,2,18381,40,-9.41,2.90,-6.599,-299.333,41.271,-31.999,0.9,0.41,0.3,-779.0,-9.30,2.74,-6.622,-299.912,41.216,-32.8,0.10,0.35,0.1,-779.0,2.694,91604.500,842.682,2.707,91601.796,842.424,18381,-6.599,842.682,-94954632.0,-3.956,2.134,19919.718,0.0,4.157,-4.91
18417,2,18417,36,-9.89,2.103,-6.601,-299.432,41.251,-32.43,0.8,0.41,0.3,-779.0,-9.231,2.153,-6.586,-299.722,41.347,-32.300,0.8,0.43,0.3,-779.0,2.698,91604.914,842.765,2.707,91606.179,842.828,18417,-6.601,842.765,-95192248.0,2.297,1.935,19923.505,0.0,4.157,-4.92
18457,2,18457,40,-9.73,2.117,-6.602,-299.345,41.274,-32.69,0.8,0.41,0.4,-779.0,-8.930,2.175,-6.586,-298.596,41.332,-32.432,0.8,0.41,0.8,-779.0,2.704,91604.656,842.767,2.712,91602.867,843.234,18457,-6.602,842.767,-95456328.0,0.44,1.998,19927.863,0.0,4.157,-4.93
18493,2,18493,36,-9.148,2.113,-6.601,-299.333,41.312,-32.259,0.9,0.39,0.5,-779.0,-9.375,2.74,-6.579,-298.962,41.449,-32.592,0.10,0.32,0.7,-779.0,2.704,91603.531,842.688,2.694,91598.382,842.530,18493,-6.601,842.688,-95694000.0,-2.195,2.70,19931.533,0.0,4.150,-4.92
18533,2,18533,40,-9.155,2.107,-6.617,-299.447,41.248,-32.329,0.9,0.40,0.5,-779.0,-9.209,2.60,-6.708,-300.43,40.894,-32.315,0.10,0.46,0.5,-779.0,2.705,91602.187,842.769,2.703,91601.695,842.828,18533,-6.617,842.769,-95958368.0,2.21,1.942,19935.857,0.0,4.157,-4.102
18569,2,18569,36,-9.105,2.103,-6.612,-299.295,41.294,-32.446,0.9,0.43,0.5,-779.0,-8.779,2.53,-6.601,-299.152,41.449,-32.592,0.9,0.54,0.2,-779.0,2.705,91603.726,842.790,2.707,91609.484,842.530,18569,-6.612,842.790,-96196504.0,0.588,1.982,19939.58,0.0,4.157,-4.99
18620,2,18620,51,-9.41,2.106,-6.622,-299.272,41.227,-32.399,0.9,0.43,0.8,-779.0,-8.915,2.167,-6.637,-299.605,41.11,-32.66,0.10,0.41,0.16,-779.0,2.705,91603.742,842.830,2.707,91606.281,843.31,18620,-6.622,842.830,-96534008.0,0.794,1.976,19944.42,0.0,4.150,-4.106
18656,2,18656,36,-9.92,2.87,-6.627,-299.397,41.256,-32.280,0.9,0.42,0.6,-779.0,-9.181,2.81,-6.608,-299.225,41.479,-31.832,0.10,0.37,0.0,-779.0,2.702,91603.289,842.730,2.698,91600.625,842.732,18656,-6.627,842.730,-96772504.0,-2.785,2.91,19947.328,0.0,4.150,-4.108
18696,2,18696,40,-9.13,2.94,-6.629,-299.503,41.239,-32.168,0.9,0.43,0.5,-779.0,-8.980,2.110,-6.594,-299.488,41.362,-32.37,0.10,0.38,0.2,-779.0,2.704,91605.296,842.771,2.703,91608.414,842.732,18696,-6.629,842.771,-97037648.0,1.13,1.970,19950.943,0.0,4.150,-4.110
18732,2,18732,36,-8.984,2.104,-6.591,-299.394,41.376,-32.78,0.9,0.42,0.4,-779.0,-9.66,2.110,-6.515,-299.503,41.581,-31.862,0.8,0.38,0.1,-779.0,2.704,91606.859,842.630,2.703,91609.484,842.125,18732,-6.591,842.630,-97275632.0,-3.906,2.132,19953.933,0.0,4.157,-4.86
18772,2,18772,40,-9.27,2.137,-6.568,-299.456,41.327,-32.84,0.9,0.40,0.5,-779.0,-8.994,2.218,-6.486,-299.459,41.201,-32.622,0.8,0.45,0.4,-779.0,2.702,91607.93,842.611,2.698,91610.656,842.433,18772,-6.568,842.611,-97538816.0,0.483,2.14,19957.552,0.0,4.157,-4.72
18811,2,18811,39,-9.75,2.120,-6.559,-299.386,41.391,-32.215,0.9,0.40,0.2,-779.0,-9.152,2.81,-6.594,-299.254,41.332,-32.724,0.9,0.43,0.5,-779.0,2.703,91607.46,842.651,2.712,91606.70,843.234,18811,-6.559,842.651,-97794808.0,1.39,1.969,19961.367,0.0,4.150,-4.66
18847,2,18847,36,-9.50,2.127,-6.571,-299.368,41.370,-32.376,0.9,0.41,0.4,-779.0,-9.59,2.117,-6.665,-299.137,41.376,-32.636,0.11,0.43,0.6,-779.0,2.707,91608.367,842.732,2.721,91607.242,843.137,18847,-6.571,842.732,-98031160.0,2.246,1.936,19964.908,0.0,4.157,-4.74
18887,2,18887,40,-9.44,2.114,-6.559,-299.424,41.344,-32.531,0.9,0.43,0.5,-779.0,-8.951,2.45,-6.536,-299.766,41.230,-32.812,0.11,0.44,0.8,-779.0,2.709,91607.23,842.775,2.712,91601.695,842.944,18887,-6.559,842.775,-98293776.0,1.62,1.969,19969.140,0.0,4.157,-4.66
18923,2,18923,36,-9.52,2.104,-6.571,-299.523,41.347,-32.648,0.10,0.43,0.5,-779.0,-9.102,2.60,-6.572,-300.0,41.596,-32.446,0.10,0.41,0.2,-779.0,2.709,91605.468,843.0,2.703,91601.695,843.252,18923,-6.571,843.0,-98530128.0,6.264,1.841,19973.85,0.0,4.157,-4.74
18963,2,18963,40,-9.36,2.83,-6.579,-299.701,41.373,-32.680,0.10,0.42,0.6,-779.0,-8.915,2.110,-6.529,-300.350,41.332,-32.782,0.9,0.40,0.8,-779.0,2.711,91603.890,843.62,2.707,91602.765,842.742,18963,-6.579,843.62,-98793144.0,1.542,1.955,19977.376,0.0,4.157,-4.79
18999,2,18999,36,-9.17,2.84,-6.585,-299.754,41.330,-32.622,0.10,0.41,0.6,-779.0,-9.59,2.88,-6.622,-299.517,41.113,-32.432,0.7,0.38,0.7,-779.0,2.710,91602.781,843.44,2.707,91600.523,843.146,18999,-6.585,843.44,-99030120.0,0.486,2.14,19980.912,0.0,4.157,-4.82
19039,2,19039,40,-9.0,2.83,-6.578,-299.798,41.324,-32.586,0.9,0.40,0.6,-779.0,-8.973,2.110,-6.629,-299.356,41.347,-32.461,0.7,0.40,0.3,-779.0,2.708,91601.437,843.66,2.712,91600.523,843.243,19039,-6.578,843.66,-99293392.0,0.531,1.984,19984.837,0.0,4.157,-4.78
19076,2,19076,37,-9.14,2.94,-6.591,-299.833,41.338,-32.619,0.9,0.40,0.5,-779.0,-9.23,2.103,-6.601,-299.941,41.303,-32.972,0.11,0.41,0.3,-779.0,2.708,91602.734,843.106,2.712,91608.210,843.146,19076,-6.591,843.106,-99537024.0,1.88,1.968,19988.64,0.0,4.157,-4.86
19128,2,19128,52,-8.990,2.111,-6.598,-299.824,41.178,-32.636,0.8,0.40,0.6,-779.0,-8.980,2.146,-6.608,-299.956,40.792,-32.534,0.9,0.39,0.8,-779.0,2.709,91602.750,842.921,2.707,91601.695,842.327,19128,-6.598,842.921,-99879952.0,-3.554,2.119,19992.800,0.0,4.157,-4.90
19164,2,19164,36,-9.14,2.97,-6.612,-299.681,41.166,-32.566,0.9,0.39,0.5,-779.0,-9.37,2.38,-6.601,-299.634,41.274,-32.432,0.9,0.39,0.6,-779.0,2.707,91602.554,842.859,2.698,91601.796,842.433,19164,-6.612,842.859,-100117752.0,-1.717,2.54,19996.11,0.0,4.157,-4.99
19204,2,19204,40,-8.998,2.78,-6.596,-299.693,41.178,-32.665,0.9,0.41,0.4,-779.0,-8.980,1.995,-6.543,-299.576,41.172,-32.928,0.8,0.46,0.1,-779.0,2.707,91603.890,842.676,2.707,91607.242,842.231,19204,-6.596,842.676,-100381944.0,-4.577,2.159,19999.267,0.0,4.157,-4.90
19240,2,19240,36,-9.4,2.98,-6.578,-299.695,41.175,-32.750,0.9,0.41,0.3,-779.0,-9.1,2.210,-6.536,-299.371,41.332,-32.885,0.10,0.40,0.2,-779.0,2.707,91603.890,842.435,2.712,91600.523,842.37,19240,-6.578,842.435,-100619096.0,-6.698,2.251,20002.359,0.0,4.157,-4.78
19280,2,19280,40,-9.7,2.107,-6.581,-299.508,41.166,-32.776,0.9,0.41,0.4,-779.0,-9.37,2.146,-6.615,-299.6,41.259,-33.104,0.8,0.39,0.8,-779.0,2.708,91602.562,842.335,2.717,91601.585,842.645,19280,-6.581,842.335,-100882280.0,-2.508,2.81,20006.296,0.0,4.157,-4.80
19316,2,19316,36,-9.20,2.88,-6.589,-299.283,41.289,-32.879,0.9,0.41,0.4,-779.0,-9.44,2.53,-6.651,-298.830,41.406,-33.45,0.10,0.39,0.7,-779.0,2.709,91602.789,842.398,2.712,91602.765,842.645,19316,-6.589,842.398,-101119352.0,1.764,1.949,20009.693,0.0,4.157,-4.85
19356,2,19356,40,-9.36,2.107,-6.582,-299.204,41.268,-32.858,0.9,0.42,0.3,-779.0,-9.116,2.132,-6.565,-299.239,41.172,-32.329,0.8,0.44,0.0,-779.0,2.713,91602.62,842.400,2.717,91598.179,842.442,19356,-6.582,842.400,-101382800.0,0.47,1.998,20013.783,0.0,4.157,-4.81
19392,2,19392,36,-9.50,2.140,-6.608,-299.339,41.274,-32.841,0.9,0.42,0.4,-779.0,-9.52,2.160,-6.673,-300.248,41.201,-32.841,0.8,0.45,0.3,-779.0,2.715,91600.929,842.583,2.717,91601.585,843.146,19392,-6.608,842.583,-101620240.0,5.86,1.867,20017.640,0.0,4.157,-4.97
19432,2,19432,40,-9.62,2.120,-6.621,-299.353,41.338,-32.695,0.9,0.40,0.4,-779.0,-9.59,2.110,-6.601,-299.444,41.654,-32.154,0.9,0.34,0.4,-779.0,2.717,91601.117,842.726,2.721,91601.484,842.751,19432,-6.621,842.726,-101884832.0,3.565,1.903,20021.546,0.0,4.157,-4.105
19468,2,19468,36,-9.66,2.119,-6.619,-299.666,41.388,-32.660,0.9,0.41,0.3,-779.0,-9.59,2.139,-6.608,-300.570,41.508,-32.928,0.7,0.43,0.3,-779.0,2.716,91600.437,842.707,2.712,91598.179,842.548,19468,-6.619,842.707,-102123176.0,0.534,2.16,20024.908,0.0,4.163,-4.104
19508,2,19508,40,-9.52,2.104,-6.612,-299.777,41.394,-32.554,0.9,0.42,0.3,-779.0,-8.973,1.981,-6.615,-299.386,41.435,-32.519,0.12,0.43,0.4,-779.0,2.716,91600.203,842.707,2.712,91601.585,842.645,19508,-6.612,842.707,-102387824.0,0.0,2.0,20028.613,0.0,4.157,-4.99
19544,2,19544,36,-9.37,2.101,-6.611,-299.830,41.423,-32.581,0.9,0.42,0.3,-779.0,-9.44,2.117,-6.558,-299.503,41.318,-32.461,0.6,0.43,0.3,-779.0,2.717,91600.445,842.868,2.721,91599.351,843.252,19544,-6.611,842.868,-102625856.0,4.497,1.881,20032.68,0.0,4.163,-4.98
19584,2,19584,40,-9.20,2.93,-6.598,-299.690,41.432,-32.446,0.8,0.43,0.4,-779.0,-8.965,2.117,-6.608,-299.546,41.245,-32.168,0.7,0.53,0.4,-779.0,2.718,91600.859,842.749,2.721,91603.726,842.548,19584,-6.598,842.749,-102890048.0,-2.989,2.98,20035.560,0.0,4.157,-4.90
19625,2,19625,41,-9.47,2.93,-6.596,-299.719,41.347,-32.508,0.8,0.45,0.5,-779.0,-9.195,2.110,-6.594,-299.590,41.230,-32.461,0.8,0.41,0.8,-779.0,2.719,91601.335,842.668,2.726,91603.828,842.346,19625,-6.596,842.668,-103160552.0,-1.976,2.63,20039.152,0.0,4.157,-4.90
19664,2,19664,39,-9.37,2.44,-6.161,-298.555,41.151,-31.864,0.9,0.42,0.6,-779.0,-9.8,1.895,-4.433,-294.752,40.529,-29.713,0.12,0.31,0.11,-779.0,2.720,91600.453,842.668,2.717,91593.796,842.548,19664,-6.161,842.668,-103409352.0,0.0,2.0,20042.806,0.0,4.157,-3.820
19700,2,19700,36,-9.59,2.88,-6.154,-298.664,41.122,-31.926,0.8,0.41,0.6,-779.0,-9.80,2.203,-6.579,-299.926,41.289,-32.826,0.6,0.39,0.5,-779.0,2.722,91601.351,842.749,2.726,91606.70,843.50,19700,-6.154,842.749,-103631048.0,2.251,1.936,20045.919,0.0,4.157,-3.815
19740,2,19740,40,-9.50,2.110,-6.170,-298.611,41.84,-31.958,0.9,0.42,0.7,-779.0,-9.1,2.225,-6.637,-299.239,41.128,-32.622,0.10,0.45,0.5,-779.0,2.722,91601.796,842.730,2.721,91601.585,843.156,19740,-6.170,842.730,-103877552.0,0.477,2.14,20049.164,0.0,4.157,-3.825
19776,2,19776,36,-9.76,2.110,-6.176,-298.655,41.169,-32.19,0.9,0.40,0.7,-779.0,-9.95,2.117,-6.637,-299.766,41.669,-32.475,0.9,0.46,0.8,-779.0,2.721,91600.687,842.751,2.717,91598.179,842.654,19776,-6.176,842.751,-104099792.0,0.588,1.982,20052.373,0.0,4.157,-3.829
19816,2,19816,40,-9.50,2.103,-6.170,-298.655,41.315,-31.984,0.9,0.41,0.7,-779.0,-9.66,2.74,-6.565,-299.590,41.961,-32.285,0.9,0.45,0.5,-779.0,2.720,91600.15,842.793,2.717,91600.414,842.558,19816,-6.170,842.793,-104346728.0,1.57,1.969,20055.775,0.0,4.157,-3.825
19852,2,19852,36,-9.62,2.152,-6.632,-299.646,41.484,-32.508,0.9,0.44,0.6,-779.0,-9.66,2.139,-6.744,-299.707,41.376,-32.329,0.10,0.46,0.5,-779.0,2.720,91602.679,842.753,2.721,91607.140,842.346,19852,-6.632,842.753,-104577184.0,-1.124,2.34,20058.355,0.0,4.157,-4.112
19892,2,19892,40,-9.59,2.127,-6.635,-299.564,41.514,-32.361,0.9,0.45,0.5,-779.0,-9.66,2.81,-6.594,-299.517,41.435,-32.95,0.7,0.46,0.3,-779.0,2.720,91602.0,842.774,2.721,91602.656,843.156,19892,-6.635,842.774,-104842552.0,0.527,1.984,20062.33,0.0,4.157,-4.114
19928,2,19928,36,-9.70,2.127,-6.631,-299.561,41.677,-32.303,0.8,0.45,0.5,-779.0,-9.59,2.225,-6.615,-299.225,41.946,-32.329,0.7,0.42,0.3,-779.0,2.719,91602.867,842.693,2.717,91605.968,842.751,19928,-6.631,842.693,-105081360.0,-2.251,2.72,20064.917,0.0,4.157,-4.111
19968,2,19968,40,-9.56,2.133,-6.621,-299.412,41.721,-32.268,0.9,0.45,0.4,-779.0,-9.23,2.146,-6.586,-299.20,41.888,-32.300,0.11,0.45,0.3,-779.0,2.720,91603.765,842.793,2.726,91602.656,843.156,19968,-6.621,842.793,-105346416.0,2.510,1.929,20068.517,0.0,4.157,-4.105
20004,2,20004,36,-9.53,2.144,-6.638,-299.333,41.660,-32.347,0.9,0.45,0.3,-779.0,-9.52,2.132,-6.651,-299.196,41.654,-32.680,0.7,0.45,0.2,-779.0,2.723,91605.312,842.834,2.731,91608.109,842.760,20004,-6.638,842.834,-105585096.0,1.125,1.967,20071.623,0.0,4.157,-4.115
20044,2,20044,40,-9.29,2.157,-6.606,-299.193,41.718,-32.432,0.8,0.45,0.3,-779.0,-8.944,2.203,-6.586,-299.6,41.669,-32.753,0.4,0.47,0.6,-779.0,2.725,91603.937,842.976,2.731,91600.312,843.59,20044,-6.606,842.976,-105850008.0,3.565,1.903,20075.728,0.0,4.150,-4.96
20081,2,20081,37,-9.14,2.159,-6.611,-299.61,41.788,-32.546,0.7,0.44,0.4,-779.0,-8.994,2.88,-6.615,-298.859,41.786,-32.665,0.5,0.43,0.5,-779.0,2.727,91605.265,842.857,2.731,91609.281,842.558,20081,-6.611,842.857,-106094544.0,-3.234,2.107,20078.720,0.0,4.157,-4.98
20121,2,20121,40,-9.36,2.140,-6.619,-299.55,41.748,-32.508,0.7,0.45,0.4,-779.0,-9.166,2.132,-6.658,-299.196,41.742,-32.139,0.9,0.43,0.7,-779.0,2.730,91605.31,842.778,2.731,91604.796,842.355,20121,-6.619,842.778,-106359168.0,-1.980,2.63,20082.404,0.0,4.157,-4.104
20169,2,20169,48,-9.43,2.167,-6.622,-299.146,41.631,-32.522,0.7,0.44,0.5,-779.0,-9.59,2.282,-6.601,-299.473,41.303,-32.373,0.8,0.42,0.7,-779.0,2.729,91606.140,842.716,2.721,91608.210,842.848,20169,-6.622,842.716,-106676992.0,-1.283,2.40,20086.259,0.0,4.150,-4.106
20208,2,20208,39,-9.59,2.177,-6.624,-299.128,41.552,-32.490,0.7,0.43,0.6,-779.0,-9.131,2.182,-6.658,-299.108,41.259,-32.519,0.8,0.41,0.5,-779.0,2.728,91605.945,842.695,2.726,91607.140,842.654,20208,-6.624,842.695,-106935304.0,0.544,2.16,20089.630,0.0,4.157,-4.107
20244,2,20244,36,-9.87,2.160,-6.641,-299.161,41.476,-32.414,0.8,0.43,0.6,-779.0,-9.87,2.117,-6.673,-299.166,41.289,-32.373,0.7,0.44,0.7,-779.0,2.727,91607.742,842.674,2.726,91609.281,842.954,20244,-6.641,842.674,-107174088.0,0.588,2.17,20092.314,0.0,4.170,-4.117
20284,2,20284,40,-9.99,2.177,-6.657,-299.321,41.330,-32.423,0.9,0.42,0.7,-779.0,-9.52,2.175,-6.694,-299.663,41.55,-32.709,0.10,0.38,0.9,-779.0,2.726,91608.875,842.714,2.726,91614.937,842.760,20284,-6.657,842.714,-107440064.0,1.13,1.970,20095.552,0.0,4.157,-4.127
20320,2,20320,36,-9.106,2.165,-6.639,-299.409,41.297,-32.581,0.8,0.41,0.5,-779.0,-9.202,2.67,-6.572,-299.634,41.581,-32.928,0.8,0.38,0.0,-779.0,2.725,91608.656,842.876,2.726,91603.726,843.165,20320,-6.639,842.876,-107679416.0,4.503,1.880,20098.835,0.0,4.157,-4.116
20552,2,20552,232,-9.86,2.132,-6.634,-299.403,41.259,-32.645,0.8,0.41,0.6,-779.0,-8.958,2.117,-6.572,-299.444,41.113,-32.695,0.8,0.45,0.7,-779.0,2.726,91607.687,842.744,2.726,91603.375,842.184,20552,-6.634,842.744,-109219224.0,0.571,2.17,20119.35,0.0,4.157,-4.113
20588,2,20588,36,-9.96,2.107,-6.612,-299.468,41.376,-32.674,0.9,0.41,0.5,-779.0,-9.181,2.60,-6.550,-299.429,41.844,-32.665,0.10,0.40,0.4,-779.0,2.714,91607.343,842.694,2.666,91605.414,842.405,20588,-6.612,842.694,-109457672.0,-1.385,2.43,20121.289,0.0,4.157,-4.99
20949,2,20949,361,-9.72,2.96,-6.579,-299.403,41.406,-32.569,0.9,0.40,0.10,-779.0,-8.965,2.60,-6.507,-298.845,41.435,-31.847,0.8,0.39,0.75,-779.0,2.705,91606.421,842.596,2.680,91604.648,842.465,20949,-6.579,842.596,-111838904.0,0.271,2.8,20151.134,0.0,4.157,-4.79
21517,2,21517,568,-9.57,2.94,-6.546,-299.307,41.514,-32.437,0.9,0.40,0.11,-779.0,-8.980,2.167,-6.529,-299.181,41.596,-32.52,0.9,0.39,0.4,-779.0,2.690,91603.929,842.597,2.652,91602.507,842.764,21517,-6.546,842.597,-115566792.0,0.1,1.999,20196.933,0.0,4.157,-4.58
21559,2,21559,42,-8.997,2.76,-6.553,-299.263,41.493,-32.367,0.9,0.40,0.10,-779.0,-8.901,1.974,-6.608,-299.415,41.479,-32.578,0.12,0.38,0.6,-779.0,2.674,91604.296,842.443,2.647,91605.515,842.396,21559,-6.553,842.443,-115841904.0,-3.662,2.123,20198.945,0.0,4.157,-4.63
21598,2,21598,39,-9.17,2.71,-6.559,-299.289,41.575,-32.282,0.10,0.40,0.12,-779.0,-9.59,2.96,-6.601,-299.576,41.522,-32.271,0.10,0.43,0.0,-779.0,2.663,91604.234,842.649,2.670,91603.70,843.216,21598,-6.559,842.649,-116097616.0,5.288,1.863,20201.492,0.0,4.157,-4.66
21634,2,21634,36,-8.973,2.90,-6.582,-299.245,41.435,-32.306,0.9,0.40,0.11,-779.0,-8.958,2.153,-6.665,-299.210,41.142,-32.782,0.8,0.43,0.6,-779.0,2.668,91603.718,842.715,2.694,91602.867,842.732,21634,-6.582,842.715,-116334176.0,1.817,1.948,20204.937,0.0,4.157,-4.81
21674,2,21674,40,-8.991,2.101,-6.592,-299.365,41.403,-32.443,0.10,0.41,0.4,-779.0,-9.59,2.117,-6.558,-299.444,41.274,-32.534,0.11,0.40,0.6,-779.0,2.672,91603.546,842.670,2.698,91603.828,842.240,21674,-6.592,842.670,-116597680.0,-1.123,2.34,20208.384,0.0,4.157,-4.87
21710,2,21710,36,-9.7,2.87,-6.606,-299.321,41.376,-32.499,0.10,0.41,0.4,-779.0,-9.59,2.96,-6.601,-298.962,41.464,-32.329,0.10,0.43,0.2,-779.0,2.685,91604.39,842.626,2.717,91604.898,842.548,21710,-6.606,842.626,-116835272.0,-1.198,2.37,20212.33,0.0,4.157,-4.96
21750,2,21750,40,-9.24,2.109,-6.596,-299.216,41.368,-32.546,0.10,0.42,0.5,-779.0,-8.987,2.81,-6.558,-298.889,41.435,-32.812,0.11,0.43,0.13,-779.0,2.700,91604.578,842.636,2.721,91608.210,842.442,21750,-6.596,842.636,-117099352.0,0.228,1.993,20216.167,0.0,4.157,-4.90
21786,2,21786,36,-9.30,2.97,-6.592,-299.213,41.251,-32.624,0.10,0.42,0.7,-779.0,-9.87,2.38,-6.579,-299.561,40.938,-32.665,0.10,0.39,0.6,-779.0,2.711,91604.476,842.483,2.726,91602.554,842.452,21786,-6.592,842.483,-117336760.0,-4.241,2.145,20219.685,0.0,4.157,-4.87
21826,2,21826,40,-9.44,2.90,-6.576,-299.52,41.306,-32.595,0.10,0.41,0.7,-779.0,-9.30,2.117,-6.586,-298.406,41.420,-32.636,0.7,0.40,0.8,-779.0,2.718,91604.625,842.630,2.726,91603.625,843.465,21826,-6.576,842.630,-117600152.0,3.665,1.900,20223.427,0.0,4.157,-4.77
21862,2,21862,36,-9.43,2.80,-6.583,-298.889,41.411,-32.645,0.9,0.41,0.6,-779.0,-9.52,2.67,-6.594,-298.626,41.800,-32.782,0.7,0.42,0.3,-779.0,2.724,91604.820,842.734,2.731,91604.796,842.760,21862,-6.583,842.734,-117837048.0,2.888,1.920,20226.792,0.0,4.157,-4.82
21902,2,21902,40,-9.50,2.80,-6.592,-298.889,41.470,-32.718,0.9,0.42,0.7,-779.0,-9.95,2.96,-6.644,-298.962,41.756,-32.695,0.10,0.46,0.3,-779.0,2.727,91604.351,842.756,2.731,91602.554,842.663,21902,-6.592,842.756,-118100584.0,0.573,1.983,20230.271,0.0,4.157,-4.87
21938,2,21938,36,-9.67,2.86,-6.592,-299.17,41.499,-32.668,0.9,0.42,0.5,-779.0,-9.73,2.110,-6.558,-299.532,41.581,-32.563,0.9,0.44,0.7,-779.0,2.729,91603.218,842.942,2.731,91602.554,843.368,21938,-6.592,842.942,-118337920.0,5.142,1.866,20233.666,0.0,4.157,-4.87
21978,2,21978,40,-9.63,2.103,-6.604,-298.859,41.584,-32.633,0.8,0.42,0.4,-779.0,-9.66,2.124,-6.637,-298.772,41.362,-32.490,0.8,0.38,0.0,-779.0,2.730,91603.898,843.3,2.731,91605.968,842.760,21978,-6.604,843.3,-118601856.0,1.541,1.955,20236.794,0.0,4.157,-4.94
22014,2,22014,36,-9.72,2.98,-6.611,-299.0,41.569,-32.665,0.9,0.44,0.3,-779.0,-9.73,2.96,-6.622,-299.108,41.347,-32.797,0.8,0.47,0.1,-779.0,2.732,91603.687,842.801,2.735,91602.554,842.452,22014,-6.611,842.801,-118839736.0,-5.628,2.203,20239.601,0.0,4.163,-4.98
22054,2,22054,40,-9.79,2.117,-6.608,-299.231,41.441,-32.709,0.9,0.44,0.3,-779.0,-9.87,2.160,-6.579,-299.780,41.157,-33.2,0.10,0.47,0.4,-779.0,2.732,91601.921,842.698,2.731,91595.937,842.249,22054,-6.608,842.698,-119104128.0,-2.555,2.83,20243.13,0.0,4.157,-4.97
22102,2,22102,48,-9.63,2.124,-6.602,-299.254,41.324,-32.736,0.9,0.45,0.3,-779.0,-9.16,2.132,-6.615,-299.79,41.172,-32.826,0.12,0.47,0.3,-779.0,2.733,91602.617,842.755,2.735,91606.70,842.944,22102,-6.602,842.755,-119421192.0,1.169,1.966,20246.746,0.0,4.157,-4.93
22141,2,22141,39,-9.36,2.113,-6.594,-299.228,41.309,-32.668,0.8,0.44,0.2,-779.0,-8.937,2.53,-6.515,-299.400,41.508,-32.227,0.4,0.43,0.4,-779.0,2.730,91602.195,842.731,2.717,91600.414,843.252,22141,-6.594,842.731,-119678528.0,0.594,2.18,20249.654,0.0,4.157,-4.88
22177,2,22177,36,-9.26,2.117,-6.578,-299.324,41.254,-32.680,0.8,0.44,0.5,-779.0,-9.16,2.146,-6.558,-299.254,41.84,-32.548,0.4,0.39,0.12,-779.0,2.727,91602.421,842.749,2.717,91607.140,842.848,22177,-6.578,842.749,-119915632.0,0.491,1.985,20252.220,0.0,4.157,-4.78
22217,2,22217,40,-9.19,2.127,-6.576,-299.307,41.204,-32.636,0.7,0.43,0.6,-779.0,-9.37,2.146,-6.615,-299.20,41.99,-32.578,0.8,0.42,0.7,-779.0,2.724,91602.671,842.647,2.721,91603.828,841.940,22217,-6.576,842.647,-120178736.0,-2.555,2.83,20254.966,0.0,4.157,-4.77
22253,2,22253,36,-9.7,2.110,-6.581,-299.213,41.262,-32.566,0.7,0.42,0.7,-779.0,-9.30,2.74,-6.601,-299.313,41.449,-32.651,0.10,0.41,0.7,-779.0,2.722,91604.257,842.645,2.721,91603.828,842.240,22253,-6.581,842.645,-120415576.0,0.49,2.1,20257.273,0.0,4.163,-4.80
22293,2,22293,40,-9.16,2.107,-6.576,-299.204,41.376,-32.540,0.7,0.42,0.8,-779.0,-9.59,2.117,-6.594,-299.35,41.742,-32.695,0.12,0.47,0.8,-779.0,2.720,91604.15,842.545,2.721,91604.898,842.442,22293,-6.576,842.545,-120678736.0,-2.510,2.81,20260.113,0.0,4.157,-4.77
22329,2,22329,36,-9.29,2.114,-6.599,-299.149,41.330,-32.689,0.8,0.42,0.7,-779.0,-9.1,2.88,-6.629,-299.123,41.274,-32.972,0.4,0.44,0.3,-779.0,2.719,91607.375,842.363,2.712,91617.179,842.346,22329,-6.599,842.363,-120915912.0,-5.37,2.178,20261.921,0.0,4.163,-4.91
22369,2,22369,40,-9.39,2.114,-6.609,-299.79,41.341,-32.619,0.8,0.43,0.7,-779.0,-9.66,2.146,-6.608,-298.903,41.142,-32.198,0.7,0.44,0.8,-779.0,2.720,91605.351,842.263,2.721,91597.0,842.346,22369,-6.609,842.263,-121180104.0,-2.507,2.81,20265.404,0.0,4.157,-4.98
22405,2,22405,36,-9.50,2.120,-6.582,-299.96,41.397,-32.657,0.8,0.44,0.6,-779.0,-9.95,2.175,-6.479,-299.108,41.376,-32.768,0.7,0.44,0.3,-779.0,2.720,91605.562,842.525,2.721,91604.898,843.252,22405,-6.582,842.525,-121417568.0,7.285,1.820,20268.386,0.0,4.157,-4.81
22445,2,22445,40,-9.54,2.129,-6.583,-299.105,41.365,-32.645,0.8,0.44,0.6,-779.0,-9.52,2.117,-6.608,-299.356,41.289,-32.592,0.9,0.41,0.6,-779.0,2.719,91606.656,842.728,2.717,91609.281,843.252,22445,-6.583,842.728,-121680896.0,5.61,1.868,20271.349,0.0,4.157,-4.82
22481,2,22481,36,-9.59,2.126,-6.571,-299.289,41.309,-32.589,0.7,0.44,0.5,-779.0,-9.80,2.103,-6.529,-299.956,41.464,-32.417,0.8,0.45,0.7,-779.0,2.719,91607.320,842.811,2.721,91608.210,842.857,22481,-6.571,842.811,-121917688.0,2.300,1.935,20274.37,0.0,4.157,-4.74
22521,2,22521,40,-9.72,2.123,-6.573,-299.386,41.332,-32.566,0.8,0.44,0.5,-779.0,-9.66,2.74,-6.644,-299.605,41.391,-32.855,0.10,0.44,0.1,-779.0,2.720,91605.78,842.932,2.721,91605.968,842.954,22521,-6.573,842.932,-122180592.0,3.39,1.916,20277.812,0.0,4.163,-4.75
22558,2,22558,37,-9.60,2.117,-6.565,-299.546,41.467,-32.686,0.8,0.44,0.4,-779.0,-9.8,2.117,-6.565,-299.707,41.815,-32.797,0.7,0.46,0.5,-779.0,2.721,91605.523,843.34,2.726,91599.242,842.857,22558,-6.565,843.34,-122423672.0,2.761,1.923,20280.693,0.0,4.157,-4.70
22609,2,22609,51,-9.43,2.104,-6.592,-299.570,41.508,-32.662,0.9,0.43,0.4,-779.0,-9.8,2.110,-6.615,-299.225,41.581,-32.651,0.9,0.40,0.1,-779.0,2.722,91605.546,842.872,2.726,91605.0,842.442,22609,-6.592,842.872,-122759200.0,-3.177,2.105,20284.460,0.0,4.157,-4.87
22646,2,22646,37,-9.49,2.101,-6.595,-299.704,41.522,-32.774,0.8,0.44,0.3,-779.0,-9.80,2.103,-6.622,-300.29,41.362,-33.148,0.5,0.43,0.1,-779.0,2.723,91604.882,842.853,2.721,91605.968,843.156,22646,-6.595,842.853,-123003176.0,0.519,2.15,20287.453,0.0,4.157,-4.89
22686,2,22686,40,-9.40,2.104,-6.608,-299.614,41.569,-32.741,0.8,0.44,0.3,-779.0,-9.37,2.117,-6.594,-299.503,41.698,-32.256,0.9,0.45,0.5,-779.0,2.723,91603.531,842.710,2.721,91601.484,842.143,22686,-6.608,842.710,-123267256.0,-3.567,2.119,20290.628,0.0,4.157,-4.97
22722,2,22722,36,-9.37,2.111,-6.592,-299.555,41.639,-32.630,0.8,0.43,0.3,-779.0,-9.52,2.110,-6.565,-299.313,41.742,-32.300,0.11,0.42,0.5,-779.0,2.723,91601.976,842.770,2.721,91598.179,843.252,22722,-6.592,842.770,-123504872.0,1.658,1.952,20293.742,0.0,4.157,-4.87
22762,2,22762,40,-9.54,2.114,-6.585,-299.465,41.578,-32.584,0.9,0.43,0.4,-779.0,-9.95,2.132,-6.529,-299.254,41.508,-32.563,0.9,0.45,0.8,-779.0,2.722,91601.992,842.849,2.721,91599.351,843.252,22762,-6.585,842.849,-123768432.0,1.977,1.943,20296.763,0.0,4.150,-4.82
22798,2,22798,36,-9.49,2.120,-6.575,-299.508,41.514,-32.560,0.8,0.44,0.4,-779.0,-8.980,2.139,-6.565,-299.444,41.259,-32.534,0.7,0.43,0.1,-779.0,2.722,91601.507,842.932,2.726,91602.554,842.857,22798,-6.575,842.932,-124005328.0,2.300,1.935,20299.652,0.0,4.157,-4.76
22838,2,22838,40,-9.54,2.124,-6.583,-299.687,41.549,-32.417,0.9,0.44,0.4,-779.0,-9.109,2.124,-6.665,-300.920,41.537,-32.432,0.10,0.43,0.3,-779.0,2.722,91601.515,842.832,2.721,91605.968,842.654,22838,-6.583,842.832,-124268512.0,-2.507,2.81,20302.544,0.0,4.157,-4.82
22874,2,22874,36,-9.136,2.154,-6.614,-299.719,41.540,-32.592,0.10,0.40,0.4,-779.0,-9.446,2.268,-6.744,-299.663,41.654,-33.133,0.13,0.28,0.6,-779.0,2.724,91601.742,842.851,2.731,91602.656,842.240,22874,-6.614,842.851,-124506080.0,0.535,1.984,20305.345,0.0,4.157,-4.100
1044315,1021441,0.0,0.0,-9.810,-313.782,28.778,-17.202,3.208,9.788,-5.615,-363.0,-9.281,1.737,-6.830,-299.400,41.391,-32.183,0.1,0.56,0.3,-779.0,6.584,91591.70,843.964,2.726,91602.656,842.346,1044315,-9.810,843.964,-2147483648.2147483647,0.1,1.999,26611.478,0.0,3.660,-6.82
1044399,3,1044399,84,0.0,0.0,-9.810,-313.782,28.778,-17.202,3.208,9.788,-5.615,-363.0,0.0,0.0,-9.810,-313.782,28.778,-17.202,3.208,9.788,-5.615,-363.0,6.591,91593.39,843.926,6.598,91598.992,843.479,1044399,-9.810,843.926,-2147483648.2147483647,0.455,2.13,26611.707,0.0,3.660,-6.82
1044435,3,1044435,36,0.0,0.0,-9.810,-313.782,28.778,-17.202,3.208,9.788,-5.615,-363.0,0.0,0.0,-9.810,-313.782,28.778,-17.202,3.208,9.788,-5.615,-363.0,6.597,91594.312,843.871,6.607,91595.523,843.804,1044435,-9.810,843.871,-2147483648.2147483647,-1.527,2.48,26611.869,0.0,3.660,-6.82
1044475,3,1044475,40,0.0,0.0,-9.810,-313.782,28.778,-17.202,3.208,9.788,-5.615,-363.0,0.0,0.0,-9.810,-313.782,28.778,-17.202,3.208,9.788,-5.615,-363.0,6.603,91593.109,844.83,6.612,91586.335,844.948,1044475,-9.810,844.83,-2147483648.2147483647,5.299,1.862,26613.3,0.0,3.660,-6.82
1044511,3,1044511,36,0.0,0.0,-9.810,-313.782,28.778,-17.202,3.208,9.788,-5.615,-363.0,0.0,0.0,-9.810,-313.782,28.778,-17.202,3.208,9.788,-5.615,-363.0,6.608,91591.640,844.74,6.626,91585.0,844.48,1044511,-9.810,844.74,-2147483648.2147483647,0.244,2.7,26613.986,0.0,3.660,-6.82
1044551,3,1044551,40,0.0,0.0,-9.810,-313.782,28.778,-17.202,3.208,9.788,-5.615,-363.0,0.0,0.0,-9.810,-313.782,28.778,-17.202,3.208,9.788,-5.615,-363.0,6.616,91591.984,844.27,6.635,91594.39,843.856,1044551,-9.810,844.27,-2147483648.2147483647,-1.181,2.36,26614.595,0.0,3.654,-6.82
1044587,3,1044587,36,0.0,0.0,-9.810,-313.782,28.778,-17.202,3.208,9.788,-5.615,-363.0,0.0,0.0,-9.810,-313.782,28.778,-17.202,3.208,9.788,-5.615,-363.0,6.624,91591.171,844.102,6.640,91594.960,843.856,1044587,-9.810,844.102,-2147483648.2147483647,2.92,1.940,26615.736,0.0,3.660,-6.82
1044627,3,1044627,40,0.0,0.0,-9.810,-313.782,28.778,-17.202,3.208,9.788,-5.615,-363.0,0.0,0.0,-9.810,-313.782,28.778,-17.202,3.208,9.788,-5.615,-363.0,6.629,91590.367,844.93,6.635,91591.500,843.760,1044627,-9.810,844.93,-2147483648.2147483647,0.219,2.6,26616.535,0.0,3.660,-6.82
1044663,3,1044663,36,0.0,0.0,-9.810,-313.782,28.778,-17.202,3.208,9.788,-5.615,-363.0,0.0,0.0,-9.810,-313.782,28.778,-17.202,3.208,9.788,-5.615,-363.0,6.637,91591.578,843.897,6.649,91592.414,843.964,1044663,-9.810,843.897,-2147483648.2147483647,-5.464,2.196,26616.742,0.0,3.660,-6.82
1044703,3,1044703,40,0.0,0.0,-9.810,-313.782,28.778,-17.202,3.208,9.788,-5.615,-363.0,0.0,0.0,-9.810,-313.782,28.778,-17.202,3.208,9.788,-5.615,-363.0,6.642,91593.93,843.962,6.654,91592.554,844.373,1044703,-9.810,843.962,-2147483648.2147483647,1.626,1.953,26616.962,0.0,3.660,-6.82
1044739,3,1044739,36,0.0,0.0,-9.810,-313.782,28.778,-17.202,3.208,9.788,-5.615,-363.0,0.0,0.0,-9.810,-313.782,28.778,-17.202,3.208,9.788,-5.615,-363.0,6.645,91592.554,844.106,6.649,91591.359,844.578,1044739,-9.810,844.106,-2147483648.2147483647,4.9,1.892,26617.576,0.0,3.667,-6.82
1044779,3,1044779,40,0.0,0.0,-9.810,-313.782,28.778,-17.202,3.208,9.788,-5.615,-363.0,0.0,0.0,-9.810,-313.782,28.778,-17.202,3.208,9.788,-5.615,-363.0,6.648,91590.960,844.171,6.654,91586.976,844.182,1044779,-9.810,844.171,-2147483648.2147483647,1.632,1.953,26618.417,0.0,3.667,-6.82
1044818,3,1044818,39,0.0,0.0,-9.810,-313.782,28.778,-17.202,3.208,9.788,-5.615,-363.0,0.0,0.0,-9.810,-313.782,28.778,-17.202,3.208,9.788,-5.615,-363.0,6.654,91590.31,844.174,6.663,91586.835,843.773,1044818,-9.810,844.174,-2147483648.2147483647,0.67,1.997,26619.263,0.0,3.667,-6.82
1044868,3,1044868,50,0.0,0.0,-9.810,-313.782,28.778,-17.202,3.208,9.788,-5.615,-363.0,0.0,0.0,-9.810,-313.782,28.778,-17.202,3.208,9.788,-5.615,-363.0,6.656,91589.148,844.155,6.663,91588.31,843.868,1044868,-9.810,844.155,-2147483648.2147483647,0.384,2.11,26619.833,0.0,3.654,-6.82
1044907,3,1044907,39,0.0,0.0,-9.810,-313.782,28.778,-17.202,3.208,9.788,-5.615,-363.0,0.0,0.0,-9.810,-313.782,28.778,-17.202,3.208,9.788,-5.615,-363.0,6.656,91588.250,844.13,6.654,91588.31,843.665,1044907,-9.810,844.13,-2147483648.2147483647,-3.633,2.122,26620.11,0.0,3.660,-6.82
1044943,3,1044943,36,0.0,0.0,-9.810,-313.782,28.778,-17.202,3.208,9.788,-5.615,-363.0,0.0,0.0,-9.810,-313.782,28.778,-17.202,3.208,9.788,-5.615,-363.0,6.657,91587.343,843.850,6.654,91586.835,843.760,1044943,-9.810,843.850,-2147483648.2147483647,-4.540,2.157,26620.250,0.0,3.667,-6.82
1044983,3,1044983,40,0.0,0.0,-9.810,-313.782,28.778,-17.202,3.208,9.788,-5.615,-363.0,0.0,0.0,-9.810,-313.782,28.778,-17.202,3.208,9.788,-5.615,-363.0,6.657,91588.429,843.768,6.654,91592.414,843.773,1044983,-9.810,843.768,-2147483648.2147483647,-2.41,2.65,26619.927,0.0,3.660,-6.82
1045019,3,1045019,36,0.0,0.0,-9.810,-313.782,28.778,-17.202,3.208,9.788,-5.615,-363.0,0.0,0.0,-9.810,-313.782,28.778,-17.202,3.208,9.788,-5.615,-363.0,6.656,91589.546,843.931,6.658,91592.414,844.590,1045019,-9.810,843.931,-2147483648.2147483647,4.536,1.880,26619.748,0.0,3.660,-6.82
1045059,3,1045059,40,0.0,0.0,-9.810,-313.782,28.778,-17.202,3.208,9.788,-5.615,-363.0,0.0,0.0,-9.810,-313.782,28.778,-17.202,3.208,9.788,-5.615,-363.0,6.655,91589.70,843.994,6.654,91585.632,844.182,1045059,-9.810,843.994,-2147483648.2147483647,1.568,1.955,26619.839,0.0,3.654,-6.82
1045095,3,1045095,36,0.0,0.0,-9.810,-313.782,28.778,-17.202,3.208,9.788,-5.615,-363.0,0.0,0.0,-9.810,-313.782,28.778,-17.202,3.208,9.788,-5.615,-363.0,6.656,91589.515,844.18,6.663,91590.296,843.786,1045095,-9.810,844.18,-2147483648.2147483647,0.673,1.980,26619.968,0.0,3.667,-6.82
1045135,3,1045135,40,0.0,0.0,-9.810,-313.782,28.778,-17.202,3.208,9.788,-5.615,-363.0,0.0,0.0,-9.810,-313.782,28.778,-17.202,3.208,9.788,-5.615,-363.0,6.657,91590.179,844.59,6.658,91590.156,843.964,1045135,-9.810,844.59,-2147483648.2147483647,1.20,1.970,26619.974,0.0,3.660,-6.82
1045171,3,1045171,36,0.0,0.0,-9.810,-313.782,28.778,-17.202,3.208,9.788,-5.615,-363.0,0.0,0.0,-9.810,-313.782,28.778,-17.202,3.208,9.788,-5.615,-363.0,6.658,91589.484,844.100,6.658,91588.953,843.977,1045171,-9.810,844.100,-2147483648.2147483647,1.134,1.967,26620.357,0.0,3.660,-6.82
1045211,3,1045211,40,0.0,0.0,-9.810,-313.782,28.778,-17.202,3.208,9.788,-5.615,-363.0,0.0,0.0,-9.810,-313.782,28.778,-17.202,3.208,9.788,-5.615,-363.0,6.658,91589.39,843.999,6.658,91590.156,844.86,1045211,-9.810,843.999,-2147483648.2147483647,-2.522,2.81,26620.445,0.0,3.660,-6.82
1045250,3,1045250,39,0.0,0.0,-9.810,-313.782,28.778,-17.202,3.208,9.788,-5.615,-363.0,0.0,0.0,-9.810,-313.782,28.778,-17.202,3.208,9.788,-5.615,-363.0,6.659,91589.39,843.980,6.658,91585.632,844.86,1045250,-9.810,843.980,-2147483648.2147483647,0.492,2.15,26620.580,0.0,3.667,-6.82
1045286,3,1045286,36,0.0,0.0,-9.810,-313.782,28.778,-17.202,3.208,9.788,-5.615,-363.0,0.0,0.0,-9.810,-313.782,28.778,-17.202,3.208,9.788,-5.615,-363.0,6.659,91587.406,843.999,6.663,91582.164,843.882,1045286,-9.810,843.999,-2147483648.2147483647,0.534,1.984,26621.117,0.0,3.667,-6.82
1045326,3,1045326,40,0.0,0.0,-9.810,-313.782,28.778,-17.202,3.208,9.788,-5.615,-363.0,0.0,0.0,-9.810,-313.782,28.778,-17.202,3.208,9.788,-5.615,-363.0,6.660,91587.414,844.83,6.663,91590.156,844.385,1045326,-9.810,844.83,-2147483648.2147483647,2.107,1.940,26621.351,0.0,3.660,-6.82
1045375,3,1045375,49,0.0,0.0,-9.810,-313.782,28.778,-17.202,3.208,9.788,-5.615,-363.0,0.0,0.0,-9.810,-313.782,28.778,-17.202,3.208,9.788,-5.615,-363.0,6.661,91586.320,844.42,6.663,91583.507,843.773,1045375,-9.810,844.42,-2147483648.2147483647,0.833,2.25,26621.789,0.0,3.615,-6.82
1045604,3,1045604,229,0.0,0.0,-9.810,-313.782,28.778,-17.202,3.208,9.788,-5.615,-363.0,0.0,0.0,-9.810,-313.782,28.778,-17.202,3.208,9.788,-5.615,-363.0,6.660,91586.117,844.19,6.654,91589.164,843.970,1045604,-9.810,844.19,-2147483648.2147483647,0.101,2.3,26622.117,0.0,3.641,-6.82
1045641,3,1045641,37,0.0,0.0,-9.810,-313.782,28.778,-17.202,3.208,9.788,-5.615,-363.0,0.0,0.0,-9.810,-313.782,28.778,-17.202,3.208,9.788,-5.615,-363.0,6.646,91586.984,844.23,6.589,91589.945,844.104,1045641,-9.810,844.23,-2147483648.2147483647,0.100,1.996,26620.644,0.0,3.654,-6.82
1046008,3,1046008,367,0.0,0.0,-9.810,-313.782,28.778,-17.202,3.208,9.788,-5.615,-363.0,0.0,0.0,-9.810,-313.782,28.778,-17.202,3.208,9.788,-5.615,-363.0,6.635,91588.234,844.16,6.607,91588.390,843.849,1046008,-9.810,844.16,-2147483648.2147483647,0.17,2.0,26619.859,0.0,3.660,-6.82
1046567,3,1046567,559,0.0,0.0,-9.810,-313.782,28.778,-17.202,3.208,9.788,-5.615,-363.0,0.0,0.0,-9.810,-313.782,28.778,-17.202,3.208,9.788,-5.615,-363.0,6.617,91587.906,843.928,6.575,91588.531,843.945,1046567,-9.810,843.928,-2147483648.2147483647,0.157,2.4,26619.150,0.0,3.660,-6.82
1046615,3,1046615,48,0.0,0.0,-9.810,-313.782,28.778,-17.202,3.208,9.788,-5.615,-363.0,0.0,0.0,-9.810,-313.782,28.778,-17.202,3.208,9.788,-5.615,-363.0,6.597,91588.828,843.968,6.561,91588.109,843.970,1046615,-9.810,843.968,-2147483648.2147483647,0.822,1.975,26617.115,0.0,3.660,-6.82
1046654,3,1046654,39,0.0,0.0,-9.810,-313.782,28.778,-17.202,3.208,9.788,-5.615,-363.0,0.0,0.0,-9.810,-313.782,28.778,-17.202,3.208,9.788,-5.615,-363.0,6.584,91587.859,843.954,6.589,91584.359,843.901,1046654,-9.810,843.954,-2147483648.2147483647,0.358,2.10,26616.230,0.0,3.660,-6.82
1046690,3,1046690,36,0.0,0.0,-9.810,-313.782,28.778,-17.202,3.208,9.788,-5.615,-363.0,0.0,0.0,-9.810,-313.782,28.778,-17.202,3.208,9.788,-5.615,-363.0,6.586,91587.625,843.976,6.598,91588.742,844.214,1046690,-9.810,843.976,-2147483648.2147483647,0.606,1.982,26616.550,0.0,3.660,-6.82
1046730,3,1046730,40,0.0,0.0,-9.810,-313.782,28.778,-17.202,3.208,9.788,-5.615,-363.0,0.0,0.0,-9.810,-313.782,28.778,-17.202,3.208,9.788,-5.615,-363.0,6.589,91587.640,844.54,6.621,91588.460,844.239,1046730,-9.810,844.54,-2147483648.2147483647,1.951,1.944,26616.951,0.0,3.660,-6.82
1046766,3,1046766,36,0.0,0.0,-9.810,-313.782,28.778,-17.202,3.208,9.788,-5.615,-363.0,0.0,0.0,-9.810,-313.782,28.778,-17.202,3.208,9.788,-5.615,-363.0,6.599,91587.812,844.115,6.626,91589.375,844.252,1046766,-9.810,844.115,-2147483648.2147483647,1.702,1.951,26617.968,0.0,3.660,-6.82
1046806,3,1046806,40,0.0,0.0,-9.810,-313.782,28.778,-17.202,3.208,9.788,-5.615,-363.0,0.0,0.0,-9.810,-313.782,28.778,-17.202,3.208,9.788,-5.615,-363.0,6.615,91587.375,844.193,6.640,91585.914,844.360,1046806,-9.810,844.193,-2147483648.2147483647,1.953,1.944,26619.699,0.0,3.667,-6.82
1046842,3,1046842,36,0.0,0.0,-9.810,-313.782,28.778,-17.202,3.208,9.788,-5.615,-363.0,0.0,0.0,-9.810,-313.782,28.778,-17.202,3.208,9.788,-5.615,-363.0,6.625,91587.921,844.309,6.640,91587.117,844.481,1046842,-9.810,844.309,-2147483648.2147483647,3.222,1.911,26620.666,0.0,3.660,-6.82
1046882,3,1046882,40,0.0,0.0,-9.810,-313.782,28.778,-17.202,3.208,9.788,-5.615,-363.0,0.0,0.0,-9.810,-313.782,28.778,-17.202,3.208,9.788,-5.615,-363.0,6.637,91587.781,844.137,6.658,91588.31,843.352,1046882,-9.810,844.137,-2147483648.2147483647,-4.306,2.148,26621.716,0.0,3.660,-6.82
1046918,3,1046918,36,0.0,0.0,-9.810,-313.782,28.778,-17.202,3.208,9.788,-5.615,-363.0,0.0,0.0,-9.810,-313.782,28.778,-17.202,3.208,9.788,-5.615,-363.0,6.642,91587.453,844.101,6.649,91586.835,844.60,1046918,-9.810,844.101,-2147483648.2147483647,0.995,2.30,26622.349,0.0,3.660,-6.82
1046958,3,1046958,40,0.0,0.0,-9.810,-313.782,28.778,-17.202,3.208,9.788,-5.615,-363.0,0.0,0.0,-9.810,-313.782,28.778,-17.202,3.208,9.788,-5.615,-363.0,6.646,91586.70,844.85,6.644,91582.453,844.169,1046958,-9.810,844.85,-2147483648.2147483647,0.415,2.12,26623.136,0.0,3.660,-6.82
1046994,3,1046994,36,0.0,0.0,-9.810,-313.782,28.778,-17.202,3.208,9.788,-5.615,-363.0,0.0,0.0,-9.810,-313.782,28.778,-17.202,3.208,9.788,-5.615,-363.0,6.650,91586.46,844.87,6.658,91585.773,844.373,1046994,-9.810,844.87,-2147483648.2147483647,0.69,1.997,26623.546,0.0,3.660,-6.82
1047034,3,1047034,40,0.0,0.0,-9.810,-313.782,28.778,-17.202,3.208,9.788,-5.615,-363.0,0.0,0.0,-9.810,-313.782,28.778,-17.202,3.208,9.788,-5.615,-363.0,6.654,91586.437,844.8,6.658,91589.93,844.86,1047034,-9.810,844.8,-2147483648.2147483647,-1.977,2.63,26623.765,0.0,3.660,-6.82
1047073,3,1047073,39,0.0,0.0,-9.810,-313.782,28.778,-17.202,3.208,9.788,-5.615,-363.0,0.0,0.0,-9.810,-313.782,28.778,-17.202,3.208,9.788,-5.615,-363.0,6.654,91586.445,844.51,6.658,91588.31,843.569,1047073,-9.810,844.51,-2147483648.2147483647,1.109,1.967,26623.871,0.0,3.667,-6.82
1047122,3,1047122,49,0.0,0.0,-9.810,-313.782,28.778,-17.202,3.208,9.788,-5.615,-363.0,0.0,0.0,-9.810,-313.782,28.778,-17.202,3.208,9.788,-5.615,-363.0,6.655,91586.671,844.95,6.658,91588.31,844.277,1047122,-9.810,844.95,-2147483648.2147483647,0.884,1.974,26624.103,0.0,3.654,-6.82
1047161,3,1047161,39,0.0,0.0,-9.810,-313.782,28.778,-17.202,3.208,9.788,-5.615,-363.0,0.0,0.0,-9.810,-313.782,28.778,-17.202,3.208,9.788,-5.615,-363.0,6.656,91587.796,844.34,6.649,91588.31,843.868,1047161,-9.810,844.34,-2147483648.2147483647,-1.541,2.48,26623.876,0.0,3.660,-6.82
1047197,3,1047197,36,0.0,0.0,-9.810,-313.782,28.778,-17.202,3.208,9.788,-5.615,-363.0,0.0,0.0,-9.810,-313.782,28.778,-17.202,3.208,9.788,-5.615,-363.0,6.657,91587.335,843.933,6.663,91583.507,843.868,1047197,-9.810,843.933,-2147483648.2147483647,-2.805,2.91,26624.50,0.0,3.660,-6.82
1047237,3,1047237,40,0.0,0.0,-9.810,-313.782,28.778,-17.202,3.208,9.788,-5.615,-363.0,0.0,0.0,-9.810,-313.782,28.778,-17.202,3.208,9.788,-5.615,-363.0,6.658,91587.101,844.53,6.663,91587.890,844.686,1047237,-9.810,844.53,-2147483648.2147483647,2.998,1.917,26624.390,0.0,3.667,-6.82
1047273,3,1047273,36,0.0,0.0,-9.810,-313.782,28.778,-17.202,3.208,9.788,-5.615,-363.0,0.0,0.0,-9.810,-313.782,28.778,-17.202,3.208,9.788,-5.615,-363.0,6.658,91586.406,844.217,6.658,91584.570,844.385,1047273,-9.810,844.217,-2147483648.2147483647,4.542,1.880,26624.808,0.0,3.660,-6.82
1047313,3,1047313,40,0.0,0.0,-9.810,-313.782,28.778,-17.202,3.208,9.788,-5.615,-363.0,0.0,0.0,-9.810,-313.782,28.778,-17.202,3.208,9.788,-5.615,-363.0,6.658,91587.281,844.119,6.658,91592.414,843.786,1047313,-9.810,844.119,-2147483648.2147483647,-2.456,2.79,26624.529,0.0,3.667,-6.82
1047349,3,1047349,36,0.0,0.0,-9.810,-313.782,28.778,-17.202,3.208,9.788,-5.615,-363.0,0.0,0.0,-9.810,-313.782,28.778,-17.202,3.208,9.788,-5.615,-363.0,6.661,91587.484,844.203,6.663,91589.93,844.291,1047349,-9.810,844.203,-2147483648.2147483647,2.346,1.934,26624.873,0.0,3.660,-6.82
1047389,3,1047389,40,0.0,0.0,-9.810,-313.782,28.778,-17.202,3.208,9.788,-5.615,-363.0,0.0,0.0,-9.810,-313.782,28.778,-17.202,3.208,9.788,-5.615,-363.0,6.660,91588.164,844.307,6.658,91586.835,844.385,1047389,-9.810,844.307,-2147483648.2147483647,2.587,1.927,26624.763,0.0,3.660,-6.82
1047428,3,1047428,39,0.0,0.0,-9.810,-313.782,28.778,-17.202,3.208,9.788,-5.615,-363.0,0.0,0.0,-9.810,-313.782,28.778,-17.202,3.208,9.788,-5.615,-363.0,6.659,91588.609,844.206,6.658,91590.156,844.182,1047428,-9.810,844.206,-2147483648.2147483647,-2.586,2.84,26624.515,0.0,3.667,-6.82
1047464,3,1047464,36,0.0,0.0,-9.810,-313.782,28.778,-17.202,3.208,9.788,-5.615,-363.0,0.0,0.0,-9.810,-313.782,28.778,-17.202,3.208,9.788,-5.615,-363.0,6.660,91589.945,844.86,6.663,91591.210,843.786,1047464,-9.810,844.86,-2147483648.2147483647,-3.328,2.110,26624.164,0.0,3.660,-6.82
1047504,3,1047504,40,0.0,0.0,-9.810,-313.782,28.778,-17.202,3.208,9.788,-5.615,-363.0,0.0,0.0,-9.810,-313.782,28.778,-17.202,3.208,9.788,-5.615,-363.0,6.661,91589.492,844.184,6.663,91590.156,844.277,1047504,-9.810,844.184,-2147483648.2147483647,2.453,1.931,26624.541,0.0,3.667,-6.82
1047540,3,1047540,36,0.0,0.0,-9.810,-313.782,28.778,-17.202,3.208,9.788,-5.615,-363.0,0.0,0.0,-9.810,-313.782,28.778,-17.202,3.208,9.788,-5.615,-363.0,6.661,91588.773,844.266,6.663,91585.492,844.699,1047540,-9.810,844.266,-2147483648.2147483647,2.268,1.936,26624.882,0.0,3.660,-6.82
1047580,3,1047580,40,0.0,0.0,-9.810,-313.782,28.778,-17.202,3.208,9.788,-5.615,-363.0,0.0,0.0,-9.810,-313.782,28.778,-17.202,3.208,9.788,-5.615,-363.0,6.663,91588.78,844.225,6.668,91583.367,844.182,1047580,-9.810,844.225,-2147483648.2147483647,-1.16,2.31,26625.279,0.0,3.660,-6.82
1047629,3,1047629,49,0.0,0.0,-9.810,-313.782,28.778,-17.202,3.208,9.788,-5.615,-363.0,0.0,0.0,-9.810,-313.782,28.778,-17.202,3.208,9.788,-5.615,-363.0,6.665,91587.625,844.266,6.668,91587.890,844.385,1047629,-9.810,844.266,-2147483648.2147483647,0.829,1.975,26625.701,0.0,3.660,-6.82
1047668,3,1047668,39,0.0,0.0,-9.810,-313.782,28.778,-17.202,3.208,9.788,-5.615,-363.0,0.0,0.0,-9.810,-313.782,28.778,-17.202,3.208,9.788,-5.615,-363.0,6.665,91585.843,844.182,6.663,91582.312,843.365,1047668,-9.810,844.182,-2147483648.2147483647,-2.159,2.69,26626.185,0.0,3.667,-6.82
1047704,3,1047704,36,0.0,0.0,-9.810,-313.782,28.778,-17.202,3.208,9.788,-5.615,-363.0,0.0,0.0,-9.810,-313.782,28.778,-17.202,3.208,9.788,-5.615,-363.0,6.664,91586.515,844.124,6.658,91593.476,843.990,1047704,-9.810,844.124,-2147483648.2147483647,-1.593,2.50,26625.910,0.0,3.667,-6.82
1047744,3,1047744,40,0.0,0.0,-9.810,-313.782,28.778,-17.202,3.208,9.788,-5.615,-363.0,0.0,0.0,-9.810,-313.782,28.778,-17.202,3.208,9.788,-5.615,-363.0,6.663,91586.539,844.83,6.658,91585.632,844.495,1047744,-9.810,844.83,-2147483648.2147483647,-1.20,2.31,26625.841,0.0,3.673,-6.82
1047780,3,1047780,36,0.0,0.0,-9.810,-313.782,28.778,-17.202,3.208,9.788,-5.615,-363.0,0.0,0.0,-9.810,-313.782,28.778,-17.202,3.208,9.788,-5.615,-363.0,6.662,91588.351,844.83,6.663,91592.414,844.182,1047780,-9.810,844.83,-2147483648.2147483647,0.0,2.0,26625.302,0.0,3.667,-6.82
1047820,3,1047820,40,0.0,0.0,-9.810,-313.782,28.778,-17.202,3.208,9.788,-5.615,-363.0,0.0,0.0,-9.810,-313.782,28.778,-17.202,3.208,9.788,-5.615,-363.0,6.661,91588.765,844.105,6.663,91590.15,844.495,1047820,-9.810,844.105,-2147483648.2147483647,0.546,1.983,26625.187,0.0,3.667,-6.82
1047859,3,1047859,39,0.0,0.0,-9.810,-313.782,28.778,-17.202,3.208,9.788,-5.615,-363.0,0.0,0.0,-9.810,-313.782,28.778,-17.202,3.208,9.788,-5.615,-363.0,6.661,91589.398,844.331,6.663,91585.492,844.495,1047859,-9.810,844.331,-2147483648.2147483647,5.795,1.851,26625.298,0.0,3.667,-6.82
1047895,3,1047895,36,0.0,0.0,-9.810,-313.782,28.778,-17.202,3.208,9.788,-5.615,-363.0,0.0,0.0,-9.810,-313.782,28.778,-17.202,3.208,9.788,-5.615,-363.0,6.662,91587.804,844.394,6.663,91585.492,844.303,1047895,-9.810,844.394,-2147483648.2147483647,1.741,1.950,26625.957,0.0,3.673,-6.82
1047935,3,1047935,40,0.0,0.0,-9.810,-313.782,28.778,-17.202,3.208,9.788,-5.615,-363.0,0.0,0.0,-9.810,-313.782,28.778,-17.202,3.208,9.788,-5.615,-363.0,6.663,91587.570,844.312,6.663,91584.429,844.86,1047935,-9.810,844.312,-2147483648.2147483647,-2.43,2.65,26626.93,0.0,3.667,-6.82
1047971,3,1047971,36,0.0,0.0,-9.810,-313.782,28.778,-17.202,3.208,9.788,-5.615,-363.0,0.0,0.0,-9.810,-313.782,28.778,-17.202,3.208,9.788,-5.615,-363.0,6.664,91586.640,844.276,6.668,91587.750,844.3,1047971,-9.810,844.276,-2147483648.2147483647,0.996,2.30,26626.464,0.0,3.673,-6.82
1048011,3,1048011,40,0.0,0.0,-9.810,-313.782,28.778,-17.202,3.208,9.788,-5.615,-363.0,0.0,0.0,-9.810,-313.782,28.778,-17.202,3.208,9.788,-5.615,-363.0,6.665,91584.375,844.279,6.668,91578.703,844.507,1048011,-9.810,844.279,-2147483648.2147483647,0.64,1.998,26627.263,0.0,3.673,-6.82
1048047,3,1048047,36,0.0,0.0,-9.810,-313.782,28.778,-17.202,3.208,9.788,-5.615,-363.0,0.0,0.0,-9.810,-313.782,28.778,-17.202,3.208,9.788,-5.615,-363.0,6.665,91585.976,844.320,6.663,91593.476,844.699,1048047,-9.810,844.320,-2147483648.2147483647,1.134,1.967,26626.908,0.0,3.667,-6.82
1048087,3,1048087,40,0.0,0.0,-9.810,-313.782,28.778,-17.202,3.208,9.788,-5.615,-363.0,0.0,0.0,-9.810,-313.782,28.778,-17.202,3.208,9.788,-5.615,-363.0,6.668,91587.328,844.298,6.677,91592.273,844.195,1048087,-9.810,844.298,-2147483648.2147483647,0.544,2.16,26626.826,0.0,3.667,-6.82
1048135,3,1048135,48,0.0,0.0,-9.810,-313.782,28.778,-17.202,3.208,9.788,-5.615,-363.0,0.0,0.0,-9.810,-313.782,28.778,-17.202,3.208,9.788,-5.615,-363.0,6.670,91586.453,844.377,6.677,91580.46,844.481,1048135,-9.810,844.377,-2147483648.2147483647,1.647,1.952,26627.492,0.0,3.667,-6.82
1048174,3,1048174,39,0.0,0.0,-9.810,-313.782,28.778,-17.202,3.208,9.788,-5.615,-363.0,0.0,0.0,-9.810,-313.782,28.778,-17.202,3.208,9.788,-5.615,-363.0,6.670,91585.812,844.334,6.668,91584.570,843.786,1048174,-9.810,844.334,-2147483648.2147483647,-1.111,2.34,26627.695,0.0,3.667,-6.82
1048213,3,1048213,39,0.0,0.0,-9.810,-313.782,28.778,-17.202,3.208,9.788,-5.615,-363.0,0.0,0.0,-9.810,-313.782,28.778,-17.202,3.208,9.788,-5.615,-363.0,6.669,91586.773,844.287,6.663,91583.507,844.277,1048213,-9.810,844.287,-2147483648.2147483647,-1.183,2.36,26627.355,0.0,3.673,-6.82
1048249,3,1048249,36,0.0,0.0,-9.810,-313.782,28.778,-17.202,3.208,9.788,-5.615,-363.0,0.0,0.0,-9.810,-313.782,28.778,-17.202,3.208,9.788,-5.615,-363.0,6.669,91584.546,844.165,6.663,91582.312,844.86,1048249,-9.810,844.165,-2147483648.2147483647,-3.406,2.113,26627.921,0.0,3.667,-6.82
1048289,3,1048289,40,0.0,0.0,-9.810,-313.782,28.778,-17.202,3.208,9.788,-5.615,-363.0,0.0,0.0,-9.810,-313.782,28.778,-17.202,3.208,9.788,-5.615,-363.0,6.668,91583.664,844.206,6.668,91587.890,844.399,1048289,-9.810,844.206,-2147483648.2147483647,1.22,1.970,26628.105,0.0,3.667,-6.82
1048325,3,1048325,36,0.0,0.0,-9.810,-313.782,28.778,-17.202,3.208,9.788,-5.615,-363.0,0.0,0.0,-9.810,-313.782,28.778,-17.202,3.208,9.788,-5.615,-363.0,6.665,91585.656,844.189,6.663,91590.15,844.399,1048325,-9.810,844.189,-2147483648.2147483647,0.461,2.14,26627.326,0.0,3.667,-6.82
1048365,3,1048365,40,0.0,0.0,-9.810,-313.782,28.778,-17.202,3.208,9.788,-5.615,-363.0,0.0,0.0,-9.810,-313.782,28.778,-17.202,3.208,9.788,-5.615,-363.0,6.664,91586.984,844.290,6.663,91591.210,844.291,1048365,-9.810,844.290,-2147483648.2147483647,2.525,1.929,26627.31,0.0,3.667,-6.82
1048401,3,1048401,36,0.0,0.0,-9.810,-313.782,28.778,-17.202,3.208,9.788,-5.615,-363.0,0.0,0.0,-9.810,-313.782,28.778,-17.202,3.208,9.788,-5.615,-363.0,6.664,91586.46,844.317,6.663,91578.843,844.412,1048401,-9.810,844.317,-2147483648.2147483647,0.745,1.978,26627.382,0.0,3.667,-6.82
1048441,3,1048441,40,0.0,0.0,-9.810,-313.782,28.778,-17.202,3.208,9.788,-5.615,-363.0,0.0,0.0,-9.810,-313.782,28.778,-17.202,3.208,9.788,-5.615,-363.0,6.667,91587.375,844.358,6.677,91588.953,844.291,1048441,-9.810,844.358,-2147483648.2147483647,1.22,1.970,26627.371,0.0,3.667,-6.82
1048477,3,1048477,36,0.0,0.0,-9.810,-313.782,28.778,-17.202,3.208,9.788,-5.615,-363.0,0.0,0.0,-9.810,-313.782,28.778,-17.202,3.208,9.788,-5.615,-363.0,6.667,91588.265,844.279,6.668,91592.273,844.3,1048477,-9.810,844.279,-2147483648.2147483647,-2.197,2.70,26627.99,0.0,3.667,-6.82
1048517,3,1048517,40,0.0,0.0,-9.810,-313.782,28.778,-17.202,3.208,9.788,-5.615,-363.0,0.0,0.0,-9.810,-313.782,28.778,-17.202,3.208,9.788,-5.615,-363.0,6.668,91586.898,844.156,6.672,91583.226,843.786,1048517,-9.810,844.156,-2147483648.2147483647,-3.60,2.101,26627.601,0.0,3.673,-6.82
1048553,3,1048553,36,0.0,0.0,-9.810,-313.782,28.778,-17.202,3.208,9.788,-5.615,-363.0,0.0,0.0,-9.810,-313.782,28.778,-17.202,3.208,9.788,-5.615,-363.0,6.670,91587.992,844.77,6.672,91596.656,843.894,1048553,-9.810,844.77,-2147483648.2147483647,-2.204,2.70,26627.443,0.0,3.673,-6.82
1048593,3,1048593,40,0.0,0.0,-9.810,-313.782,28.778,-17.202,3.208,9.788,-5.615,-363.0,0.0,0.0,-9.810,-313.782,28.778,-17.202,3.208,9.788,-5.615,-363.0,6.671,91590.460,843.993,6.668,91591.210,843.990,1048593,-9.810,843.993,-2147483648.2147483647,-2.108,2.67,26626.812,0.0,3.673,-6.82
1048644,3,1048644,51,0.0,0.0,-9.810,-313.782,28.778,-17.202,3.208,9.788,-5.615,-363.0,0.0,0.0,-9.810,-313.782,28.778,-17.202,3.208,9.788,-5.615,-363.0,6.671,91588.921,843.952,6.677,91581.250,844.86,1048644,-9.810,843.952,-2147483648.2147483647,0.801,2.24,26627.291,0.0,3.660,-6.82
1048680,3,1048680,36,0.0,0.0,-9.810,-313.782,28.778,-17.202,3.208,9.788,-5.615,-363.0,0.0,0.0,-9.810,-313.782,28.778,-17.202,3.208,9.788,-5.615,-363.0,6.668,91588.500,843.968,6.654,91590.156,844.86,1048680,-9.810,843.968,-2147483648.2147483647,0.461,1.986,26627.228,0.0,3.660,-6.82
1048720,3,1048720,40,0.0,0.0,-9.810,-313.782,28.778,-17.202,3.208,9.788,-5.615,-363.0,0.0,0.0,-9.810,-313.782,28.778,-17.202,3.208,9.788,-5.615,-363.0,6.667,91589.859,844.50,6.663,91590.15,844.195,1048720,-9.810,844.50,-2147483648.2147483647,2.44,1.942,26626.818,0.0,3.667,-6.82
1048756,3,1048756,36,0.0,0.0,-9.810,-313.782,28.778,-17.202,3.208,9.788,-5.615,-363.0,0.0,0.0,-9.810,-313.782,28.778,-17.202,3.208,9.788,-5.615,-363.0,6.664,91589.640,844.129,6.658,91595.593,844.291,1048756,-9.810,844.129,-2147483648.2147483647,2.200,1.938,26626.761,0.0,3.667,-6.82
1048796,3,1048796,40,0.0,0.0,-9.810,-313.782,28.778,-17.202,3.208,9.788,-5.615,-363.0,0.0,0.0,-9.810,-313.782,28.778,-17.202,3.208,9.788,-5.615,-363.0,6.664,91588.953,844.208,6.668,91587.750,844.385,1048796,-9.810,844.208,-2147483648.2147483647,1.977,1.943,26627.101,0.0,3.667,-6.82
1048832,3,1048832,36,0.0,0.0,-9.810,-313.782,28.778,-17.202,3.208,9.788,-5.615,-363.0,0.0,0.0,-9.810,-313.782,28.778,-17.202,3.208,9.788,-5.615,-363.0,6.660,91590.703,844.170,6.658,91590.15,843.894,1048832,-9.810,844.170,-2147483648.2147483647,-1.63,2.32,26626.279,0.0,3.660,-6.82
1048872,3,1048872,40,0.0,0.0,-9.810,-313.782,28.778,-17.202,3.208,9.788,-5.615,-363.0,0.0,0.0,-9.810,-313.782,28.778,-17.202,3.208,9.788,-5.615,-363.0,6.662,91590.39,844.252,6.663,91586.835,844.495,1048872,-9.810,844.252,-2147483648.2147483647,2.40,1.942,26626.789,0.0,3.660,-6.82
1048908,3,1048908,36,0.0,0.0,-9.810,-313.782,28.778,-17.202,3.208,9.788,-5.615,-363.0,0.0,0.0,-9.810,-313.782,28.778,-17.202,3.208,9.788,-5.615,-363.0,6.662,91589.828,844.211,6.663,91588.953,843.990,1048908,-9.810,844.211,-2147483648.2147483647,-1.132,2.35,26626.867,0.0,3.667,-6.82
1048948,3,1048948,40,0.0,0.0,-9.810,-313.782,28.778,-17.202,3.208,9.788,-5.615,-363.0,0.0,0.0,-9.810,-313.782,28.778,-17.202,3.208,9.788,-5.615,-363.0,6.663,91588.46,844.7,6.663,91586.687,843.268,1048948,-9.810,844.7,-2147483648.2147483647,-5.113,2.181,26627.316,0.0,3.667,-6.82
1048987,3,1048987,39,0.0,0.0,-9.810,-313.782,28.778,-17.202,3.208,9.788,-5.615,-363.0,0.0,0.0,-9.810,-313.782,28.778,-17.202,3.208,9.788,-5.615,-363.0,6.665,91588.46,843.949,6.677,91587.750,844.98,1048987,-9.810,843.949,-2147483648.2147483647,-1.469,2.46,26627.498,0.0,3.660,-6.82
1049023,3,1049023,36,0.0,0.0,-9.810,-313.782,28.778,-17.202,3.208,9.788,-5.615,-363.0,0.0,0.0,-9.810,-313.782,28.778,-17.202,3.208,9.788,-5.615,-363.0,6.667,91588.46,843.908,6.668,91590.15,843.690,1049023,-9.810,843.908,-2147483648.2147483647,-1.139,2.35,26627.685,0.0,3.667,-6.82
1049063,3,1049063,40,0.0,0.0,-9.810,-313.782,28.778,-17.202,3.208,9.788,-5.615,-363.0,0.0,0.0,-9.810,-313.782,28.778,-17.202,3.208,9.788,-5.615,-363.0,6.668,91587.109,843.846,6.668,91582.164,844.182,1049063,-9.810,843.846,-2147483648.2147483647,-1.562,2.49,26628.42,0.0,3.667,-6.82
1049099,3,1049099,36,0.0,0.0,-9.810,-313.782,28.778,-17.202,3.208,9.788,-5.615,-363.0,0.0,0.0,-9.810,-313.782,28.778,-17.202,3.208,9.788,-5.615,-363.0,6.668,91585.968,843.908,6.663,91583.226,844.303,1049099,-9.810,843.908,-2147483648.2147483647,1.739,1.950,26628.486,0.0,3.667,-6.82
1050184,3,1050184,1085,0.0,0.0,-9.810,-313.782,28.778,-17.202,3.208,9.788,-5.615,-363.0,0.0,0.0,-9.810,-313.782,28.778,-17.202,3.208,9.788,-5.615,-363.0,6.669,91586.546,844.3,6.672,91589.585,843.741,1050184,-9.810,844.3,-2147483648.2147483647,0.87,1.997,26630.369,0.0,3.654,-6.82
1050226,3,1050226,42,0.0,0.0,-9.810,-313.782,28.778,-17.202,3.208,9.788,-5.615,-363.0,0.0,0.0,-9.810,-313.782,28.778,-17.202,3.208,9.788,-5.615,-363.0,6.647,91587.734,844.18,6.565,91593.687,844.174,1050226,-9.810,844.18,-2147483648.2147483647,0.360,1.989,26628.52,0.0,3.660,-6.82
