millis(),currentState,IMUAcc.acceleration.x,IMUAcc.acceleration.y,IMUAcc.acceleration.z,IMUGyro.gyro.x,IMUGyro.gyro.y,IMUGyro.gyro.z,IMUTher.temperature,BARO.readTemperature,BARO.readPressure,BARO.readAltitude
0.-31,9.49,-3.-27,0.6,0.-6,0.-8,-3.-68,0.72,93473.67,674.71
2557,2,0.-67,9.30,-3.-88,0.4,0.-6,0.-6,-3.-68,0.74,93476.98,675.18
2601,2,0.-6,8.89,-5.-74,0.1,0.-2,0.-10,-3.-62,0.75,93477.10,674.51
2645,2,0.-62,9.12,-4.-3,0.3,0.-1,0.-12,-3.-56,0.76,93481.45,674.21
2689,2,-1.-89,9.23,-2.-80,0.15,0.-12,0.-1,-3.-56,0.77,93478.21,674.41
2775,2,0.28,11.54,-5.-36,0.16,0.-17,0.-8,-3.-56,0.76,93472.95,674.97
2819,2,1.66,9.66,-4.-82,0.-2,0.-5,0.-13,-3.-50,0.79,93474.17,674.67
2863,2,0.-52,4.43,-3.-48,0.-19,0.-4,0.-15,-3.-50,0.82,93476.44,674.56
2907,2,0.-71,9.88,-3.-63,0.2,0.-4,0.-7,-3.-50,0.83,93479.81,674.74
2951,2,-1.-6,9.15,-3.-47,0.4,0.-12,0.-7,-3.-50,0.84,93480.97,674.83
2995,2,0.-99,9.28,-3.-90,0.4,0.-10,0.-7,-3.-43,0.85,93474.55,674.83
3039,2,0.-55,10.20,-3.-8,0.6,0.-4,0.-5,-3.-43,0.86,93478.89,674.92
3083,2,0.-8,9.90,-2.-92,0.10,0.-10,0.-6,-3.-43,0.85,93480.78,674.55
3168,2,0.-23,9.30,-4.-18,0.6,0.-5,0.-10,-3.-43,0.82,93477.60,674.75
3212,2,0.-59,10.2,-3.-76,0.11,0.-7,0.-10,-3.-43,0.83,93476.57,674.84
3256,2,-1.-31,8.45,-4.-42,0.5,0.-9,0.-14,-3.-43,0.83,93476.57,674.84
3300,2,-1.-61,10.25,-3.-88,0.7,0.-7,0.-8,-3.-43,0.83,93471.12,674.94
3344,2,0.-58,9.55,-3.-78,0.6,0.-9,0.-7,-3.-37,0.82,93481.89,675.3
3388,2,0.-37,9.25,-4.-6,0.7,0.-11,0.-9,-3.-43,0.83,93482.92,675.22
3432,2,-1.-13,9.23,-4.-35,0.6,0.-13,0.-9,-3.-31,0.82,93479.50,675.5
3519,2,0.-15,9.22,-4.-43,0.7,0.-11,0.-15,-3.-37,0.79,93470.93,674.48
3563,2,-1.-67,9.27,-4.-18,0.6,0.-14,0.-13,-3.-37,0.80,93474.17,674.57
3607,2,-1.-8,9.37,-4.-8,0.4,0.-8,0.-10,-3.-37,0.80,93469.96,675.4
3651,2,0.-88,8.76,-3.-78,0.3,0.-7,0.-9,-3.-37,0.81,93469.96,674.76
3695,2,0.-98,9.48,-3.-59,0.5,0.-10,0.-10,-3.-37,0.81,93478.52,674.66
3739,2,-1.-50,9.0,-4.-86,0.0,0.-5,0.-10,-3.-37,0.81,93481.76,674.38
3783,2,-1.-18,9.23,-3.-46,0.-2,0.-14,0.-5,-3.-37,0.81,93478.58,675.14
3827,2,0.-13,9.33,-2.-78,0.2,0.-19,0.-7,-3.-37,0.80,93484.75,674.69
3913,2,0.-86,9.16,-4.-17,0.2,0.-21,0.-9,-3.-31,0.78,93484.82,674.96
3957,2,-1.-66,9.3,-3.-83,0.0,0.-13,0.-9,-3.-31,0.79,93479.50,674.39
4001,2,-1.-84,9.30,-3.-41,0.2,0.-14,0.-5,-3.-37,0.79,93476.32,674.20
4045,2,0.-22,9.30,-4.-3,0.0,0.-9,0.-6,-3.-37,0.80,93469.89,674.77
4089,2,0.-91,9.27,-3.-53,0.0,0.-13,0.-9,-3.-31,0.80,93478.52,674.9
4133,2,-1.-30,9.37,-3.-23,0.0,0.-9,0.-7,-3.-37,0.81,93474.24,674.95
4177,2,0.-98,9.29,-3.-92,0.3,0.-11,0.-7,-3.-31,0.80,93484.75,674.78
4270,2,0.-89,9.28,-3.-18,0.1,0.1,0.-6,-3.-31,0.77,93478.39,675.25
4314,2,0.-73,8.5,-4.-13,0.4,0.-15,0.-8,-3.-31,0.80,93483.84,675.5
4358,2,0.-12,10.66,-2.-1,0.7,0.-20,0.-7,-3.-37,0.80,93474.24,674.66
4402,2,0.-87,9.98,-3.-74,0.9,0.-3,0.-9,-3.-31,0.81,93479.68,674.75
4446,2,0.-96,9.15,-3.-38,0.6,0.-9,0.-9,-3.-37,0.82,93477.54,674.75
4490,2,-1.-20,5.55,-5.-23,0.5,0.-8,0.-8,-3.-31,0.82,93477.54,674.85
4535,2,-2.-6,9.55,-4.-62,0.2,0.-12,0.-6,-3.-31,0.83,93478.64,674.75
4579,2,-1.-19,9.28,-2.-74,0.-5,0.-10,0.-2,-3.-31,0.82,93480.60,674.19
4664,2,0.-50,9.58,-7.-7,0.0,0.-15,0.-8,-3.-31,0.81,93475.28,674.95
4708,2,-2.-73,9.14,-4.-82,0.-13,0.-5,0.-5,-3.-37,0.81,93477.48,674.95
4752,2,-1.-63,9.29,-3.-97,0.-16,0.-11,0.0,-3.-31,0.82,93474.36,674.47
4796,2,0.23,9.39,-2.-92,0.-15,0.-14,0.-1,-3.-31,0.83,93479.75,674.84
4840,2,0.-7,9.48,-4.-3,0.-11,0.-14,0.-6,-3.-37,0.83,93477.60,674.93
4884,2,-2.-95,9.28,-6.-34,0.-22,0.-24,0.-4,-3.-31,0.83,93476.57,675.3
4928,2,0.71,9.60,-2.-11,0.-32,0.-5,0.-2,-3.-31,0.82,93483.84,674.75
5012,2,-2.-46,9.45,-3.-23,0.-24,0.-1,0.-12,-3.-31,0.81,93477.54,674.95
5056,2,0.-16,9.60,0.-56,0.-19,0.-16,0.-9,-3.-25,0.82,93473.26,674.75
5100,2,0.-98,9.77,0.-90,0.-11,0.-29,0.-13,-3.-25,0.83,93482.99,676.8
5144,2,-1.-11,9.37,-2.-42,0.-4,0.-14,0.-11,-3.-31,0.83,93478.64,674.55
5188,2,-1.-99,9.61,-2.-75,0.-1,0.-27,0.-13,-3.-31,0.83,93479.81,674.93
5232,2,-1.-79,9.47,0.-97,0.3,0.-17,0.-4,-3.-25,0.83,93473.32,674.93
5276,2,0.-48,9.74,-2.-49,0.9,0.-4,0.-7,-3.-31,0.84,93477.67,674.74
5320,2,-1.-76,9.66,-1.-3,0.16,0.-18,0.-1,-3.-31,0.84,93478.77,674.93
5360,2,-1.-47,9.71,-1.-4,0.21,0.0,0.-6,-3.-31,0.85,93477.73,675.2
5404,2,-3.-53,10.6,3.21,0.38,0.-25,0.4,-3.-31,0.85,93482.1,675.2
5448,2,0.57,9.63,0.-58,0.58,0.-31,0.-9,-3.-31,0.84,93473.45,674.64
5492,2,0.-56,9.32,-1.-3,0.78,0.-42,0.-8,-3.-25,0.85,93482.1,674.25
5537,2,-1.-28,8.94,-2.-58,0.88,0.-3,0.-14,-3.-25,0.85,93474.55,674.92
5581,2,-1.-29,8.67,-3.-60,0.92,0.-21,0.-12,-3.-25,0.86,93483.17,674.83
5625,2,-2.-86,8.38,-4.-90,0.90,0.-2,0.-8,-3.-25,0.85,93476.69,674.54
5665,2,0.33,8.46,-5.-10,0.81,0.47,0.-8,-3.-31,0.85,93475.65,675.2
5709,2,-1.-8,8.32,-7.-83,0.73,0.1,0.-10,-3.-25,0.86,93479.87,674.54
5753,2,0.-14,8.23,-7.-81,0.56,0.6,0.-9,-3.-31,0.86,93476.69,675.49
5797,2,0.-35,8.34,-7.0,0.40,0.-6,0.-18,-3.-31,0.86,93481.3,674.64
5841,2,-1.-43,8.44,-6.-58,0.31,0.-9,0.-18,-3.-31,0.85,93481.3,674.92
5885,2,-1.-11,8.42,-5.-56,0.24,0.-9,0.-17,-3.-31,0.85,93477.79,674.54
5929,2,-1.-78,8.40,-6.-10,0.20,0.-5,0.-16,-3.-25,0.85,93475.65,674.73
5973,2,-1.-13,8.31,-6.-15,0.14,0.-1,0.-14,-3.-31,0.86,93475.65,674.34
6013,2,-1.-38,8.27,-6.-31,0.9,0.-7,0.-12,-3.-31,0.86,93478.89,674.73
6057,2,-1.-32,8.31,-5.-88,0.4,0.-8,0.-11,-3.-31,0.87,93474.61,674.72
6101,2,-1.-65,8.15,-6.-8,0.1,0.-8,0.-10,-3.-37,0.87,93470.33,674.82
6145,2,-1.-85,8.48,-5.-11,0.-1,0.-8,0.-8,-3.-31,0.87,93478.89,674.82
6189,2,-1.-49,8.32,-5.-79,0.-1,0.-5,0.-5,-3.-31,0.86,93480.0,674.63
6233,2,-1.-45,8.26,-6.-71,0.-8,0.-9,0.-3,-3.-31,0.86,93472.47,674.91
6277,2,-1.-32,8.32,-7.-14,0.-16,0.-6,0.0,-3.-25,0.86,93473.39,675.12
6362,2,0.-80,8.46,-4.-92,0.-35,0.-14,0.-3,-3.-31,0.84,93479.87,675.2
6406,2,-1.-26,8.52,-4.-91,0.-35,0.-7,0.-2,-3.-31,0.85,93482.7,675.59
6450,2,-1.-6,8.74,-3.-26,0.-27,0.-13,0.-3,-3.-31,0.86,93477.79,675.21
6494,2,0.-89,8.85,-3.-89,0.-25,0.-6,0.-2,-3.-25,0.86,93483.24,674.82
6539,2,0.-41,8.95,-4.-29,0.-22,0.-14,0.-4,-3.-25,0.86,93476.75,674.63
6583,2,-1.-53,8.95,-3.-68,0.-19,0.-12,0.-6,-3.-31,0.87,93474.67,674.72
6627,2,0.61,9.18,-3.-70,0.-17,0.-12,0.-10,-3.-25,0.87,93481.10,674.82
6673,2,0.-84,9.1,-4.-27,0.-14,0.-27,0.-16,-3.-25,0.88,93483.24,674.72
6717,2,-1.-55,9.18,-3.-25,0.-13,0.-2,0.-13,-3.-18,0.88,93483.24,674.72
6761,2,0.-87,9.4,-4.-9,0.-10,0.-24,0.-12,-3.-25,0.87,93483.24,674.62
6805,2,-1.-83,9.7,-3.-65,0.-10,0.-13,0.-13,-3.-25,0.87,93480.6,674.91
6849,2,0.-82,9.51,-3.-26,0.-12,0.-16,0.-15,-3.-31,0.87,93476.88,675.58
6893,2,0.-62,9.42,-3.-79,0.-5,0.-12,0.-12,-3.-25,0.88,93472.59,674.62
6937,2,-1.-42,9.21,-3.-75,0.-7,0.-9,0.-10,-3.-18,0.89,93472.59,674.61
6981,2,-1.-28,9.20,-4.-44,0.-8,0.-7,0.-7,-3.-25,0.90,93473.82,674.42
7021,2,-2.-91,9.17,-3.-85,0.-13,0.6,0.-4,-3.-25,0.91,93476.2,674.89
7065,2,-1.-58,9.11,-3.-79,0.-10,0.-11,0.6,-3.-31,0.90,93481.40,674.69
7109,2,-1.-50,9.24,-4.-23,0.-13,0.-8,0.6,-3.-18,0.92,93481.46,674.40
7153,2,-1.-4,9.37,-3.-90,0.-18,0.-6,0.9,-3.-25,0.92,93480.42,674.69
7197,2,0.-62,9.43,-3.-46,0.-18,0.-18,0.10,-3.-25,0.93,93471.85,674.97
7241,2,0.18,9.29,-4.-74,0.-17,0.-58,0.0,-3.-25,0.94,93477.30,675.35
7285,2,0.-89,9.36,-3.-30,0.-26,0.-29,0.0,-3.-25,0.95,93475.22,674.86
7325,2,-1.-12,9.44,-3.-46,0.-30,0.-14,0.-1,-3.-25,0.96,93476.32,674.86
7369,2,-1.-53,9.33,-3.-37,0.-30,0.-16,0.0,-3.-25,0.97,93475.28,674.86
7413,2,-1.-87,9.62,-4.-11,0.-35,0.5,0.3,-3.-25,0.97,93476.39,674.38
7457,2,0.-52,9.74,-3.-2,0.-39,0.-7,0.7,-3.-31,0.97,93476.44,674.66
7501,2,-1.-42,9.3,-1.-53,0.-37,0.-23,0.6,-3.-25,0.97,93478.59,674.85
7546,2,-1.-58,9.45,0.-73,0.-31,0.-16,0.11,-3.-25,0.97,93480.78,675.71
7590,2,0.-60,9.74,-1.-19,0.-22,0.-18,0.13,-3.-25,0.98,93473.26,675.3
7634,2,0.-19,9.86,-1.-35,0.-20,0.-13,0.13,-3.-25,0.99,93476.57,674.65
7674,2,0.-13,9.73,-1.-82,0.-16,0.-12,0.9,-3.-25,0.99,93475.46,674.93
7718,2,-1.-29,9.74,-1.-26,0.-12,0.-11,0.12,-3.-25,0.99,93475.46,675.22
7762,2,0.19,9.91,0.13,0.-5,0.-16,0.16,-3.-25,1.1,93473.39,674.65
7806,2,0.15,10.21,-1.-16,0.-6,0.-3,0.18,-3.-25,1.0,93479.81,674.74
7850,2,1.75,10.41,0.-64,0.-2,0.41,0.10,-3.-25,1.1,93469.10,675.31
7894,2,2.88,13.33,-1.-77,0.-4,0.36,0.-6,-3.-31,1.1,93477.67,674.93
7938,2,0.-43,10.33,-2.-56,0.-24,0.1,0.-19,-3.-31,1.1,93473.39,674.92
7978,2,0.-96,9.95,-2.-1,0.-38,0.30,0.-10,-3.-25,1.2,93472.40,674.73
8022,2,-1.-21,7.23,-2.-14,0.-50,0.0,0.0,-3.-31,1.2,93472.40,675.2
8066,2,0.-21,8.9,0.-58,0.-64,0.7,0.10,-3.-31,1.2,93468.12,674.73
8110,2,0.46,9.56,0.45,0.-58,0.-34,0.9,-3.-31,1.2,93475.64,674.63
8154,2,2.45,11.98,4.23,0.2,0.26,0.-11,-3.-18,1.3,93480.97,674.44
8198,2,0.23,9.62,0.-56,0.34,0.-23,0.-32,-3.-25,1.3,93476.75,674.44
8242,2,-1.-87,8.43,-3.-22,0.21,0.-15,0.-26,-3.-31,1.3,93472.40,675.30
8286,2,-2.-63,7.62,-2.-48,0.-7,0.-32,0.-9,-3.-31,1.3,93478.95,674.81
8326,2,-2.0,9.4,-1.-72,0.-23,0.9,0.10,-3.-31,1.4,93471.42,674.91
8370,2,1.23,12.12,0.-14,0.5,0.45,0.-6,-3.-25,1.3,93473.57,674.63
8414,2,0.22,9.63,-2.-38,0.-4,0.-14,0.-6,-3.-25,1.4,93474.60,674.5
8458,2,-1.-4,9.99,0.-89,0.-10,0.6,0.-9,-3.-31,1.4,93480.5,675.29
8502,2,0.26,9.89,0.-56,0.-13,0.-18,0.-1,-3.-25,1.4,93475.76,675.77
8547,2,0.93,9.71,0.21,0.-13,0.-23,0.-5,-3.-25,1.4,93475.76,674.72
8591,2,0.33,10.75,0.87,0.-7,0.-30,0.-13,-3.-31,1.4,93474.72,674.81
8637,2,0.22,11.24,0.55,0.-2,0.-18,0.-13,-3.-25,1.4,93472.52,674.72
8681,2,0.-30,10.12,1.34,0.4,0.-12,0.-15,-3.-25,1.4,93473.62,674.53
8725,2,0.-85,9.98,0.-19,0.8,0.-9,0.-13,-3.-18,1.4,93470.44,674.34
8769,2,0.-29,10.5,0.90,0.9,0.-7,0.-8,-3.-25,1.4,93480.5,674.90
8813,2,0.33,10.3,0.8,0.14,0.-1,0.-9,-3.-25,1.4,93479.7,674.80
8857,2,0.-42,9.98,0.-76,0.12,0.-8,0.-12,-3.-25,1.5,93480.10,675.10
8901,2,0.-62,10.1,0.-1,0.10,0.-10,0.-10,-3.-18,1.4,93476.86,675.10
8945,2,0.-42,10.8,0.4,0.10,0.-7,0.-7,-3.-25,1.5,93480.10,674.61
8991,2,0.29,10.0,0.1,0.12,0.-7,0.-8,-3.-25,1.6,93479.7,674.61
9035,2,0.-64,10.0,0.-18,0.14,0.-9,0.-10,-3.-31,1.5,93474.78,674.80
9079,2,0.-11,10.7,0.-51,0.14,0.-3,0.-8,-3.-31,1.5,93473.68,674.61
9123,2,0.-19,10.4,0.-61,0.13,0.-13,0.-7,-3.-18,1.5,93476.92,674.80
9167,2,0.-21,10.5,0.17,0.12,0.-5,0.-7,-3.-25,1.5,93475.89,675.66
9211,2,0.-53,10.3,0.-5,0.16,0.-12,0.-6,-3.-18,1.6,93483.41,674.99
9255,2,0.23,10.1,0.-21,0.17,0.1,0.-6,-3.-25,1.4,93475.82,674.99
9299,2,0.32,9.97,0.-81,0.18,0.-5,0.-10,-3.-25,1.6,93475.89,674.80
9339,2,0.-28,9.97,0.-46,0.16,0.-4,0.-10,-3.-25,1.6,93474.84,675.9
9383,2,0.-15,10.2,-1.-14,0.16,0.-8,0.-10,-3.-25,1.5,93476.99,675.56
9427,2,0.-99,9.76,-1.-39,0.12,0.-13,0.-10,-3.-18,1.6,93479.13,675.9
9471,2,0.-68,9.93,0.-26,0.10,0.-2,0.-8,-3.-25,1.5,93473.75,675.9
9515,2,0.-47,10.3,0.-40,0.11,0.-5,0.-6,-3.-25,1.5,93479.7,674.71
9560,2,0.-48,10.4,0.-57,0.13,0.-8,0.-5,-3.-25,1.7,93478.3,674.80
9604,2,0.-55,10.4,0.-86,0.15,0.-6,0.-2,-3.-25,1.6,93472.70,674.90
9648,2,0.-6,9.95,-2.-6,0.8,0.-10,0.-3,-3.-25,1.7,93478.9,674.22
9688,2,0.17,10.1,-1.-31,0.3,0.-8,0.-3,-3.-25,1.6,93469.52,674.89
9732,2,0.39,10.5,0.-11,0.3,0.-11,0.-8,-3.-18,1.6,93475.94,675.9
9776,2,0.-62,9.95,0.-55,0.7,0.-10,0.-10,-3.-18,1.6,93474.84,674.90
9820,2,0.31,9.95,0.-52,0.4,0.-5,0.-11,-3.-18,1.6,93478.3,675.37
9864,2,-1.-8,10.4,0.-46,0.7,0.-10,0.-10,-3.-18,1.7,93477.4,674.32
9908,2,0.-32,10.1,-1.-27,0.7,0.-6,0.-5,-3.-18,1.6,93472.70,674.61
9952,2,0.-3,10.5,0.-90,0.4,0.-7,0.-6,-3.-25,1.6,93480.23,674.99
9996,2,0.-40,10.0,0.-37,0.5,0.-8,0.-6,-3.-25,1.7,93478.14,674.98
10209,2,0.-44,10.2,0.-46,0.7,0.-6,0.-8,-3.-12,0.98,93471.12,675.3
10253,2,0.-22,10.1,-1.0,0.9,0.-7,0.-7,-3.-18,1.0,93485.19,674.73
10297,2,0.-12,9.93,0.-94,0.5,0.-13,0.-9,-3.-25,1.2,93481.9,675.29
10341,2,0.-47,9.98,0.-56,0.4,0.-8,0.-8,-3.-18,1.4,93474.72,674.81
10385,2,0.6,9.97,0.-53,0.7,0.-8,0.-7,-3.-25,1.5,93473.68,674.80
10429,2,0.10,10.2,0.-50,0.9,0.-7,0.-10,-3.-25,1.5,93474.78,675.9
10473,2,0.-19,9.97,-1.-38,0.9,0.-6,0.-12,-3.-25,1.6,93479.7,674.90
10517,2,0.4,10.3,0.-21,0.9,0.-6,0.-13,-3.-18,1.6,93478.9,674.90
10558,2,0.-27,10.1,0.-43,0.13,0.-7,0.-14,-3.-18,1.7,93484.51,675.9
10603,2,0.-22,9.78,-1.-14,0.12,0.-4,0.-14,-3.-25,1.7,93474.90,674.51
10647,2,0.-47,9.93,0.-66,0.14,0.-9,0.-13,-3.-25,1.7,93480.28,674.41
10691,2,0.-20,10.0,-1.-35,0.14,0.-3,0.-14,-3.-25,1.7,93479.13,674.60
10735,2,0.-34,10.6,0.-62,0.13,0.-12,0.-14,-3.-25,1.7,93479.18,675.17
10779,2,0.-17,10.10,0.-47,0.14,0.-6,0.-15,-3.-18,1.7,93476.0,675.46
10823,2,0.-53,9.80,-1.-19,0.16,0.-16,0.-15,-3.-18,1.7,93474.90,675.36
10864,2,0.-79,9.95,0.-88,0.19,0.-11,0.-15,-3.-25,1.7,93478.14,674.79
10908,2,0.-59,9.93,-1.-10,0.20,0.-7,0.-13,-3.-18,1.8,93474.96,674.89
10952,2,0.-78,10.5,0.-75,0.20,0.-34,0.-10,-3.-25,1.8,93471.72,674.60
10996,2,-1.-3,9.76,-1.-98,0.22,0.-20,0.-7,-3.-18,1.8,93477.10,675.8
11040,2,0.-45,9.86,-1.-74,0.17,0.-6,0.-7,-3.-18,1.8,93474.96,675.36
11084,2,0.-91,9.91,-1.-47,0.17,0.-8,0.-8,-3.-18,1.7,93476.0,674.79
11128,2,0.-85,9.82,-1.-87,0.14,0.0,0.-5,-3.-18,1.8,93479.25,674.70
11172,2,0.-49,9.79,-2.-9,0.13,0.-7,0.-3,-3.-25,1.8,93478.21,675.8
11212,2,0.-57,9.89,-2.-5,0.10,0.-7,0.-3,-3.-25,1.9,93473.92,674.69
11256,2,0.-36,9.88,-1.-85,0.7,0.-9,0.-3,-3.-18,1.8,93479.25,674.98
11300,2,0.-47,9.99,-2.-7,0.4,0.-12,0.-3,-3.-18,1.8,93470.67,674.89
11344,2,0.-30,9.85,-1.-39,0.3,0.-11,0.-3,-3.-12,1.8,93476.0,674.98
11388,2,0.-33,9.85,-1.-52,0.5,0.-10,0.-4,-3.-18,1.9,93478.21,675.27
11432,2,0.-2,9.92,-1.-71,0.4,0.-6,0.-5,-3.-18,1.8,93477.10,674.70
11476,2,0.-27,9.89,-1.-68,0.4,0.-7,0.-7,-3.-18,1.8,93477.16,674.98
11522,2,0.-21,9.90,-1.-66,0.3,0.-9,0.-7,-3.-25,1.9,93480.35,674.98
11566,2,0.-24,9.95,-1.-64,0.2,0.-8,0.-8,-3.-25,1.9,93474.96,674.89
11611,2,0.-56,9.90,-1.-96,0.1,0.-8,0.-9,-3.-12,1.9,93471.72,674.98
11655,2,0.-50,9.91,-1.-56,0.0,0.-7,0.-7,-3.-18,1.7,93477.16,674.79
11699,2,0.-60,9.91,-1.-67,0.-1,0.-5,0.-7,-3.-18,1.8,93470.67,674.69
11743,2,0.-17,10.0,-1.-31,0.-1,0.-10,0.-6,-3.-18,1.8,93468.53,675.7
11787,2,0.-33,9.93,0.-84,0.0,0.-7,0.-8,-3.-18,1.9,93479.31,674.79
11831,2,0.-26,9.92,-1.-49,0.2,0.-6,0.-8,-3.-18,1.9,93477.22,675.7
11871,2,0.-29,9.91,-1.-3,0.1,0.-10,0.-10,-3.-12,1.10,93477.16,674.88
11915,2,0.-36,9.95,-1.-20,0.5,0.-6,0.-10,-3.-18,1.9,93480.41,674.79
11959,2,0.-36,9.93,-1.-58,0.5,0.-5,0.-12,-3.-18,1.9,93472.88,675.7
12003,2,0.-66,9.90,-1.-90,0.3,0.-12,0.-10,-3.-18,1.9,93473.98,675.54
12047,2,0.-59,9.88,-1.-21,0.1,0.-11,0.-8,-3.-25,1.9,93478.26,674.88
12091,2,0.-70,9.88,-1.0,0.2,0.-9,0.-8,-3.-12,1.10,93481.50,674.78
12135,2,0.-68,9.93,0.-86,0.5,0.-8,0.-8,-3.-25,1.10,93476.18,675.45
12179,2,0.-22,9.97,-1.-7,0.8,0.-7,0.-8,-3.-18,1.10,93476.12,674.88
12219,2,0.-25,9.93,-1.-49,0.9,0.-8,0.-8,-3.-25,1.10,93476.12,675.16
12263,2,0.-40,9.88,-1.-77,0.8,0.-9,0.-10,-3.-18,1.10,93477.28,675.16
12307,2,0.-70,9.89,-1.-36,0.6,0.-9,0.-11,-3.-12,1.10,93476.12,675.7
12351,2,0.-54,9.82,-1.-70,0.5,0.-5,0.-10,-3.-18,1.10,93474.4,674.21
12395,2,0.-37,9.88,-1.-45,0.4,0.-8,0.-9,-3.-18,1.10,93481.57,674.88
12439,2,0.-52,9.95,-1.-27,0.5,0.-7,0.-9,-3.-25,1.10,93473.98,675.7
12483,2,0.-36,9.82,0.-82,0.8,0.-9,0.-10,-3.-25,1.11,93468.65,675.6
12523,2,0.-84,9.90,-1.-6,0.11,0.-7,0.-9,-3.-18,1.11,93472.94,675.44
12567,2,0.-76,9.82,-2.-41,0.10,0.-6,0.-7,-3.-18,1.11,93477.22,675.25
12612,2,0.-72,9.83,-2.-15,0.6,0.-8,0.-6,-3.-18,1.10,93476.12,674.78
12656,2,0.-33,9.93,-1.-36,0.3,0.-9,0.-6,-3.-18,1.11,93479.36,674.88
12700,2,0.-29,9.93,-1.-33,0.4,0.-8,0.-7,-3.-12,1.11,93475.8,674.87
12744,2,0.-73,9.88,-1.-50,0.5,0.-10,0.-8,-3.-25,1.10,93477.28,674.88
12788,2,0.-47,9.91,-1.-62,0.4,0.-9,0.-8,-3.-18,1.11,93480.46,674.78
12832,2,0.-59,9.87,-1.-71,0.4,0.-7,0.-9,-3.-18,1.11,93473.0,675.6
12872,2,0.-42,9.95,-1.-64,0.3,0.-9,0.-8,-3.-18,1.11,93472.94,675.6
12916,2,0.-39,9.88,-1.-50,0.2,0.-8,0.-10,-3.-25,1.11,93471.89,674.77
12960,2,0.-61,10.7,-1.-58,0.2,0.-5,0.-12,-3.-25,1.11,93472.94,674.77
13004,2,0.-52,9.87,-1.-18,0.2,0.-9,0.-13,-3.-25,1.11,93481.50,674.87
13048,2,0.-97,10.31,-1.-39,0.3,0.-7,0.-13,-3.-18,1.10,93479.42,674.97
13092,2,0.-87,9.86,-1.-55,0.3,0.-10,0.-11,-3.-25,1.10,93479.42,675.44
13136,2,0.-76,9.89,-1.-36,0.3,0.-8,0.-11,-3.-18,1.11,93479.48,674.39
13176,2,0.-67,9.83,-1.-53,0.3,0.-9,0.-10,-3.-25,1.11,93475.14,674.77
13220,2,-1.-1,9.94,-1.-46,0.1,0.-8,0.-10,-3.-25,1.11,93480.53,674.78
13264,2,0.-56,9.87,-1.-15,0.2,0.-10,0.-11,-3.-12,1.11,93466.57,675.6
13308,2,-1.-11,9.88,-1.-24,0.3,0.-9,0.-10,-3.-18,1.11,93476.24,674.96
13352,2,0.-84,9.88,-1.-12,0.5,0.-12,0.-9,-3.-18,1.11,93478.39,674.77
13396,2,-1.-2,9.88,-1.-47,0.5,0.-7,0.-8,-3.-18,1.11,93475.14,675.15
13440,2,0.-91,9.89,-1.-22,0.5,0.-7,0.-6,-3.-18,1.11,93478.39,675.6
13486,2,0.-90,9.92,-1.-27,0.6,0.-8,0.-6,-3.-12,1.11,93474.16,675.15
13530,2,0.-79,9.84,-1.-48,0.7,0.-8,0.-5,-3.-18,1.12,93473.0,674.77
13574,2,0.-20,9.94,-1.-63,0.7,0.-11,0.-6,-3.-12,1.11,93478.39,674.77
13619,2,-1.-25,9.91,-1.-21,0.6,0.-9,0.-9,-3.-18,1.11,93475.20,674.96
13663,2,-1.-38,9.88,-1.-25,0.10,0.-5,0.-2,-3.-18,1.11,93476.30,674.67
13707,2,0.-75,9.87,-1.-53,0.7,0.-8,0.-3,-3.-18,1.11,93475.20,674.29
13751,2,0.-50,9.91,-1.-53,0.6,0.-6,0.-3,-3.-18,1.11,93477.34,674.58
13795,2,0.-62,9.92,-1.-51,0.7,0.-12,0.-4,-3.-18,1.11,93479.42,675.6
13835,2,0.-76,9.82,-1.-38,0.7,0.-16,0.-5,-3.-12,1.11,93471.96,675.25
13879,2,0.-84,9.89,-1.-53,0.6,0.-9,0.-4,-3.-18,1.11,93476.24,674.96
13923,2,0.-26,9.83,-1.-43,0.7,0.-15,0.-5,-3.-18,1.11,93477.28,675.34
13967,2,0.-73,9.82,-1.-86,0.6,0.-10,0.-6,-3.-18,1.11,93480.53,676.1
14011,2,0.-44,9.93,-1.-12,0.5,0.-8,0.-7,-3.-18,1.11,93477.28,675.15
14055,2,0.-55,9.86,-1.-43,0.5,0.-7,0.-9,-3.-18,1.11,93473.0,675.6
14099,2,0.-67,9.93,-1.-48,0.5,0.-13,0.-9,-3.-18,1.11,93479.42,675.25
14145,2,-1.-6,9.86,-1.-43,0.3,0.-4,0.-7,-3.-18,1.11,93477.28,674.87
14189,2,0.-83,9.87,-1.-37,0.5,0.-9,0.-8,-3.-18,1.11,93472.94,675.6
14233,2,0.-74,9.90,-1.-36,0.5,0.-10,0.-6,-3.-18,1.11,93470.79,675.44
14277,2,0.-66,9.85,-1.-53,0.6,0.-10,0.-5,-3.-18,1.11,93479.48,674.58
14321,2,0.-32,9.91,0.-71,0.2,0.14,0.-9,-3.-12,1.11,93485.91,674.97
14365,2,-1.-73,9.86,0.-46,0.7,0.-15,0.-7,-3.-18,1.11,93478.32,674.77
14409,2,-1.-21,9.86,0.-90,0.4,0.3,0.-7,-3.-18,1.10,93483.71,674.69
14453,2,0.-89,9.88,-1.-59,0.8,0.-18,0.-4,-3.-12,1.11,93477.22,674.69
14493,2,0.13,9.92,-2.-35,0.3,0.0,0.-7,-3.-12,1.10,93476.18,675.7
14537,2,0.-80,9.91,-1.-60,0.2,0.-14,0.-8,-3.-12,1.9,93481.39,674.50
14581,2,-1.-6,9.89,-1.-37,0.4,0.-7,0.-5,-3.-18,1.8,93474.96,675.46
14626,2,0.-61,9.85,-1.-19,0.3,0.-7,0.-5,-3.-12,1.8,93479.18,674.60
14670,2,0.-85,9.87,-1.-29,0.5,0.-7,0.-6,-3.-18,1.7,93474.90,674.80
14714,2,0.-59,9.87,-1.-55,0.4,0.-6,0.-5,-3.-12,1.6,93472.70,675.47
14758,2,0.-71,9.88,-1.-18,0.5,0.-8,0.-6,-3.-25,1.6,93480.17,675.28
14802,2,0.-26,9.92,-1.-40,0.5,0.-12,0.-7,-3.-18,1.4,93479.13,675.18
14842,2,0.-64,9.96,-1.-39,0.6,0.-10,0.-9,-3.-18,1.5,93474.78,675.28
14886,2,0.-89,9.91,-1.-47,0.5,0.-6,0.-8,-3.-18,1.4,93475.82,674.90
14930,2,0.-90,10.7,0.-96,0.3,0.-5,0.-8,-3.-25,1.5,93477.91,675.48
14974,2,0.-90,9.89,-1.-15,0.4,0.-2,0.-5,-3.-18,1.4,93472.52,675.10
15018,2,0.-64,9.91,-1.-48,0.6,0.-9,0.-4,-3.-12,1.3,93480.5,675.48
15062,2,0.-36,9.91,-1.-57,0.4,0.-8,0.-7,-3.-12,1.4,93475.76,674.72
15106,2,0.-72,9.82,-1.-13,0.4,0.-10,0.-8,-3.-12,1.4,93476.81,674.72
15152,2,0.-32,9.92,-1.-61,0.3,0.-8,0.-8,-3.-18,1.3,93479.99,675.11
15196,2,0.-13,9.94,-1.-91,0.0,0.-7,0.-10,-3.-12,1.3,93473.50,675.20
15240,2,0.-90,9.82,0.-72,0.0,0.-12,0.-12,-3.-18,1.3,93473.57,675.40
15284,2,-1.-53,9.92,-1.-9,0.4,0.-7,0.-10,-3.-18,1.3,93474.60,675.1
15328,2,0.-85,9.83,-1.-52,0.6,0.-12,0.-5,-3.-18,1.3,93472.46,674.91
15372,2,0.-75,9.85,-1.-70,0.4,0.-10,0.-5,-3.-18,1.3,93474.60,675.1
15416,2,0.-60,9.96,-1.-31,0.5,0.-13,0.-4,-3.-18,1.3,93472.46,675.11
15460,2,0.-3,9.99,0.-99,0.5,0.-9,0.-7,-3.-12,1.4,93480.5,675.20
15500,2,0.-32,9.96,-1.-24,0.6,0.-10,0.-10,-3.-12,1.3,93469.22,675.30
15544,2,0.-92,9.83,-1.-59,0.7,0.-12,0.-10,-3.-12,1.2,93478.89,674.72
15588,2,0.-41,9.98,-1.-18,0.5,0.-4,0.-10,-3.-18,1.1,93469.22,674.73
15633,2,0.-61,9.88,-1.-68,0.6,0.-13,0.-12,-3.-18,1.2,93475.64,675.49
15677,2,0.-88,9.91,-1.-41,0.5,0.-9,0.-12,-3.-18,1.2,93477.73,674.44
15721,2,-1.-49,9.82,-1.-55,0.4,0.-9,0.-10,-3.-12,1.1,93468.12,675.30
15765,2,0.-86,9.90,-1.-78,0.1,0.-2,0.-7,-3.-12,1.2,93472.34,674.74
15811,2,0.-35,9.97,0.-92,0.3,0.-10,0.-8,-3.-18,1.0,93478.77,674.93
15855,2,0.-89,9.87,-1.-24,0.5,0.-11,0.-9,-3.-25,1.2,93476.63,674.64
15899,2,-1.-13,9.88,-1.-58,0.3,0.-3,0.-9,-3.-25,1.1,93476.63,675.22
15943,2,-1.-32,9.99,0.-99,0.4,0.-4,0.-7,-3.-18,1.1,93474.48,675.3
15987,2,-1.-23,9.83,-1.-13,0.8,0.-12,0.-3,-3.-12,1.0,93477.67,675.51
16031,2,0.-22,9.94,-1.-99,0.5,0.-5,0.-4,-3.-25,0.99,93471.24,674.84
16075,2,0.1,9.77,-1.-92,0.5,0.-13,0.-7,-3.-12,1.0,93475.46,675.12
16119,2,-1.-17,9.81,-1.-25,0.8,0.-18,0.-8,-3.-12,1.0,93476.57,674.74
16159,2,-1.-11,9.51,-1.-65,0.4,0.-6,0.-7,-3.-18,1.0,93478.77,674.74
16203,2,0.-53,9.93,0.-55,0.2,0.0,0.-4,-3.-18,1.0,93478.77,674.65
16247,2,0.-90,9.89,-1.-2,0.6,0.-8,0.-5,-3.-18,1.0,93479.81,675.51
16291,2,0.-89,9.96,-1.-77,0.3,0.-1,0.-5,-3.-18,0.99,93480.85,675.3
16335,2,0.-67,9.94,-1.-87,0.7,0.-7,0.-5,-3.-12,0.99,93472.22,674.84
16379,2,0.-87,9.88,-1.-25,0.7,0.0,0.-5,-3.-12,0.99,93478.71,674.55
16423,2,0.-65,9.95,-1.-12,0.6,0.-1,0.-3,-3.-12,1.0,93478.64,675.12
16467,2,0.-53,9.94,-1.-40,0.7,0.-8,0.-2,-3.-18,0.99,93476.57,674.74
16507,2,0.-48,9.89,-1.-65,0.7,0.-8,0.-4,-3.-12,1.0,93478.71,675.22
16551,2,0.-34,9.95,-1.-55,0.5,0.-8,0.-5,-3.-25,0.99,93478.71,675.12
16595,2,0.-35,9.87,-1.-59,0.3,0.-8,0.-7,-3.-18,0.98,93480.85,674.74
16640,2,0.-59,9.90,-1.-46,0.3,0.-12,0.-10,-3.-25,0.99,93481.89,674.74
16684,2,0.-86,10.0,-1.-85,0.0,0.-7,0.-9,-3.-18,0.98,93471.18,674.36
16728,2,0.-96,8.94,-1.-10,0.1,0.-14,0.-9,-3.-12,0.98,93477.60,674.56
16772,2,-1.-4,9.84,-1.-63,0.1,0.-10,0.-7,-3.-12,0.99,93482.99,675.32
16812,2,0.-35,9.93,-1.-25,0.2,0.-10,0.-7,-3.-12,0.99,93473.32,674.46
16856,2,0.-55,9.82,-1.-12,0.2,0.-13,0.-7,-3.-12,0.99,93479.75,675.13
16900,2,0.-83,10.0,0.-78,0.5,0.-12,0.-9,-3.-12,0.99,93475.40,675.3
16944,2,-1.-28,9.86,-1.-16,0.8,0.-9,0.-5,-3.-18,0.98,93484.3,674.94
16988,2,-1.-5,9.97,0.-89,0.9,0.-5,0.-3,-3.-18,0.98,93477.54,675.33
17032,2,0.-57,9.88,-1.-43,0.9,0.-2,0.-2,-3.-12,0.98,93475.40,675.23
17076,2,0.-39,9.83,-1.-74,0.8,0.-8,0.-3,-3.-12,0.98,93480.78,674.66
17120,2,0.-34,9.88,-1.-27,0.7,0.-7,0.-4,-3.-12,0.98,93484.3,675.13
17160,2,0.-60,9.90,-1.-15,0.9,0.-8,0.-5,-3.-12,0.98,93471.12,675.23
17204,2,0.-18,9.95,-1.-20,0.9,0.-3,0.-7,-3.-18,0.98,93478.59,674.85
17248,2,0.-15,9.95,-1.-53,0.10,0.-4,0.-9,-3.-12,0.98,93475.40,673.99
17292,2,0.1,9.95,-1.-62,0.9,0.-9,0.-13,-3.-12,0.98,93479.69,674.47
17336,2,0.-97,9.95,-1.-61,0.9,0.-7,0.-14,-3.-12,0.97,93474.30,674.75
17380,2,0.-62,9.91,-1.-40,0.9,0.-18,0.-12,-3.-18,0.98,93482.87,675.23
17424,2,-1.-12,10.5,-1.-77,0.12,0.-11,0.-14,-3.-18,0.98,93478.59,675.33
17464,2,-1.-4,9.79,-1.-28,0.10,0.-7,0.-11,-3.-12,0.98,93481.83,674.75
17508,2,-1.-20,9.91,0.-99,0.11,0.-4,0.-9,-3.-12,0.98,93477.49,673.99
17552,2,-1.-1,9.79,-1.-49,0.12,0.-5,0.-6,-3.-12,0.97,93476.44,675.14
17596,2,0.-68,10.0,-1.-78,0.0,0.3,0.-14,-3.-18,0.97,93471.6,674.66
17641,2,0.-88,9.82,-1.-86,0.9,0.-12,0.-10,-3.-18,0.97,93482.87,675.4
17685,2,-1.-2,9.85,-1.-33,0.7,0.-9,0.-9,-3.-12,0.97,93473.20,674.85
17729,2,-1.-51,9.82,-1.-67,0.10,0.-11,0.-5,-3.-18,0.97,93475.35,674.76
17773,2,0.-50,9.81,-1.-78,0.8,0.-5,0.-2,-3.-18,0.97,93481.77,674.66
17813,2,0.-8,9.90,-1.-78,0.7,0.-7,0.-5,-3.-12,0.97,93477.49,674.85
17857,2,0.-81,9.88,-2.-5,0.5,0.-13,0.-6,-3.-12,0.97,93477.49,674.66
17901,2,-1.-5,9.80,-1.-54,0.4,0.-5,0.-4,-3.-18,0.97,93486.5,674.47
17945,2,-1.-8,9.83,-1.-43,0.7,0.-9,0.0,-3.-18,0.96,93476.44,674.75
17989,2,0.-35,9.90,-1.-86,0.5,0.-3,0.-1,-3.-12,0.97,93477.49,674.85
18033,2,0.-17,9.90,-1.-80,0.4,0.-9,0.-4,-3.-18,0.97,93481.77,674.75
18077,2,0.-33,9.96,-1.-57,0.4,0.-9,0.-6,-3.-12,0.97,93478.59,674.66
18117,2,0.-92,9.92,-1.-45,0.5,0.-8,0.-7,-3.-12,0.97,93482.81,674.85
18161,2,0.-85,9.88,-1.-3,0.8,0.-9,0.-6,-3.-12,0.97,93478.59,674.56
18205,2,0.-97,9.70,-2.-7,0.12,0.-10,0.-4,-3.-18,0.97,93481.77,674.75
18249,2,0.-68,9.85,-1.-91,0.7,0.-4,0.-2,-3.-12,0.97,93479.63,674.76
18293,2,1.5,9.80,-1.-85,0.9,0.-15,0.-5,-3.-18,0.97,93480.67,674.57
18337,2,0.-17,10.0,-2.-46,0.5,0.-19,0.-12,-3.-12,0.98,93480.67,674.19
18381,2,0.-86,9.86,-1.-69,0.-1,0.1,0.-13,-3.-6,0.97,93480.67,674.28
18425,2,-1.-28,9.81,-1.-43,0.2,0.-12,0.-10,-3.-18,0.97,93480.73,674.95
18465,2,0.-65,9.85,-1.-74,0.0,0.-3,0.-9,-3.-12,0.97,93480.73,674.18
18509,2,0.-37,9.81,-2.-4,0.3,0.-13,0.-6,-3.-12,0.97,93481.77,674.76
18553,2,0.-4,9.93,-1.-85,0.4,0.-11,0.-9,-3.-18,0.97,93475.35,674.38
18597,2,0.-27,9.82,-2.-84,0.1,0.-12,0.-11,-3.-18,0.97,93475.35,674.47
18642,2,-1.-4,9.95,-1.-32,0.-2,0.-7,0.-14,-3.-12,0.97,93481.71,674.67
18686,2,-1.-83,9.73,-1.-47,0.0,0.-8,0.-8,-3.-12,0.97,93488.19,674.67
18730,2,0.-50,9.85,-1.-41,0.0,0.-9,0.-5,-3.-12,0.97,93482.81,674.75
18770,2,-1.-22,9.89,-1.-31,0.0,0.0,0.-5,-3.-12,0.97,93479.57,674.76
18814,2,0.28,9.76,-1.-62,0.7,0.-11,0.0,-3.-12,0.97,93482.81,674.76
18858,2,0.-1,10.14,-2.0,0.2,0.-10,0.-8,-3.-18,0.97,93487.9,674.76
18902,2,-1.-90,9.79,-1.-6,0.7,0.-19,0.-5,-3.-12,0.97,93487.9,674.38
18946,2,0.-75,10.3,-1.-60,0.7,0.1,0.-6,-3.-12,0.97,93476.32,674.57
18990,2,0.-13,9.99,-2.-27,0.7,0.-18,0.-6,-3.-12,0.97,93478.46,674.76
19034,2,-1.-43,9.88,-1.-60,0.7,0.-15,0.-7,-3.-18,0.97,93479.57,673.71
19078,2,0.7,9.99,-1.-57,0.5,0.-6,0.-5,-3.-18,0.97,93480.67,674.29
19118,2,0.-91,9.78,-1.-72,0.5,0.-7,0.-7,-3.-12,0.97,93489.23,673.90
19162,2,0.-47,9.92,-1.-11,0.8,0.-11,0.-4,-3.-12,0.97,93485.99,674.48
19206,2,1.54,10.95,-1.-62,0.7,0.-3,0.-5,-3.-12,0.96,93485.99,674.47
19250,2,0.-69,9.97,-1.-56,0.4,0.-8,0.-7,-3.-12,0.97,93474.12,674.67
19294,2,0.-86,9.82,-1.-75,0.3,0.-12,0.-9,-3.-18,0.96,93482.75,674.77
19338,2,0.-65,9.89,-1.-41,0.0,0.-4,0.-6,-3.-18,0.96,93482.75,674.58
19382,2,-1.-13,9.91,-1.-33,0.2,0.-17,0.-6,-3.-12,0.96,93480.60,674.57
19422,2,0.-33,9.84,-1.-78,0.2,0.-1,0.-6,-3.-18,0.97,93485.99,674.58
19466,2,0.-59,9.96,-1.-10,0.4,0.-17,0.-7,-3.-12,0.96,93487.3,674.20
19510,2,0.-96,9.89,-1.-57,0.4,0.-10,0.-5,-3.-12,0.95,93489.17,674.67
19554,2,0.3,9.95,-1.-29,0.5,0.-15,0.-6,-3.-12,0.97,93482.75,674.58
19598,2,-1.-8,9.81,0.-97,0.8,0.-31,0.-4,-3.-12,0.95,93478.40,674.20
19643,2,0.-62,9.86,-1.-60,0.7,0.-13,0.-6,-3.-18,0.96,93481.64,674.10
19687,2,0.-79,9.92,-1.-73,0.6,0.-14,0.-6,-3.-18,0.96,93482.75,675.15
19731,2,0.-23,9.81,-1.-90,0.5,0.-16,0.-6,-3.-12,0.96,93476.32,674.48
19771,2,0.-8,9.90,-1.-40,0.4,0.-11,0.-11,-3.-18,0.97,93481.64,674.29
19815,2,0.-81,8.44,-1.-53,0.6,0.-43,0.-8,-3.-12,0.97,93483.78,674.48
19859,2,0.7,10.41,-1.-1,0.7,0.-45,0.-11,-3.-18,0.96,93478.40,675.5
19903,2,-1.-53,9.85,-1.-55,0.5,0.5,0.-9,-3.-12,0.96,93482.75,674.96
19947,2,0.-52,10.1,-1.-29,0.7,0.-8,0.-6,-3.-18,0.96,93484.83,674.20
19991,2,0.-32,9.89,-1.-90,0.5,0.-12,0.-8,-3.-18,0.95,93484.89,674.67
20035,2,0.-75,9.83,-2.-16,0.3,0.-8,0.-8,-3.-12,0.96,93480.54,674.48
20136,2,0.4,9.39,0.-40,0.0,0.-11,0.-11,-3.-18,0.90,93481.34,674.60
20180,2,0.-46,10.2,-1.-59,0.5,0.-6,0.-13,-3.-18,0.92,93483.54,674.41
20224,2,0.-68,9.84,-1.-80,0.4,0.-4,0.-10,-3.-18,0.92,93479.32,674.97
20268,2,0.-81,9.94,-1.-39,0.5,0.-10,0.-9,-3.-18,0.94,93479.39,673.82
20312,2,-1.-11,9.80,-2.-18,0.6,0.-24,0.-5,-3.-18,0.94,93485.81,674.78
20356,2,-1.-21,9.91,0.-82,0.5,0.-6,0.-5,-3.-25,0.95,93478.35,674.59
20400,2,0.-47,9.87,-1.-60,0.5,0.-6,0.-4,-3.-18,0.94,93480.49,674.30
20444,2,-1.-33,9.82,0.-92,0.10,0.-6,0.-2,-3.-12,0.94,93481.59,674.39
20485,2,0.-45,9.89,-2.-4,0.12,0.0,0.-1,-3.-12,0.95,93476.26,674.30
20529,2,0.-30,10.12,-4.-28,0.10,0.-3,0.-2,-3.-18,0.94,93476.20,674.87
20573,2,0.-75,9.78,-2.-55,0.2,0.-13,0.-6,-3.-18,0.95,93481.53,674.59
20617,2,0.-59,9.83,-1.-15,0.-1,0.-2,0.-10,-3.-12,0.94,93483.73,674.78
20662,2,0.-73,9.85,-1.-24,0.-9,0.0,0.-12,-3.-6,0.93,93472.90,674.30
20706,2,0.-44,9.84,0.-73,0.-1,0.15,0.-9,-3.-12,0.94,93474.0,674.59
20750,2,0.-44,9.87,-1.-89,0.1,0.-3,0.-7,-3.-12,0.93,93476.20,674.30
20791,2,0.-64,9.84,-1.-66,0.-2,0.-5,0.-8,-3.-12,0.95,93477.30,674.49
20835,2,0.-65,9.96,0.-91,0.0,0.-12,0.-9,-3.-12,0.94,93485.87,674.21
20879,2,-1.-29,9.92,-1.-40,0.1,0.-11,0.-7,-3.-12,0.94,93479.39,674.68
20923,2,0.-51,9.87,-1.-26,0.2,0.-8,0.-6,-3.-12,0.95,93480.49,674.49
20967,2,0.-87,9.91,0.-96,0.4,0.-14,0.-6,-3.-6,0.94,93484.77,674.68
21011,2,-1.-42,10.1,-1.-30,0.6,0.-11,0.-3,-3.-12,0.94,93478.35,674.40
21055,2,0.-59,9.92,0.-94,0.7,0.-8,0.-1,-3.-6,0.94,93483.67,675.16
21101,2,0.-77,9.92,-1.-29,0.9,0.-11,0.0,-3.-18,0.93,93478.35,674.68
21145,2,0.-47,9.93,-1.-21,0.9,0.-4,0.-2,-3.-12,0.93,93478.28,674.30
21189,2,0.6,9.86,-2.-7,0.9,0.-8,0.-4,-3.-12,0.94,93483.73,674.68
21233,2,0.28,9.88,-1.-98,0.4,0.-12,0.-8,-3.-18,0.94,93482.63,675.45
21277,2,0.-24,9.93,-1.-56,0.2,0.-14,0.-12,-3.-18,0.94,93471.85,674.30
21321,2,0.-86,9.85,-1.-45,0.0,0.-15,0.-13,-3.-12,0.94,93479.39,674.68
21365,2,-1.-26,9.94,-1.-8,0.2,0.-11,0.-12,-3.-18,0.93,93478.28,674.40
21409,2,0.-58,9.96,-1.-45,0.2,0.-6,0.-10,-3.-12,0.93,93483.67,674.49
21451,2,-1.-25,9.87,-1.-53,0.2,0.-14,0.-9,-3.-12,0.94,93479.39,674.2
21495,2,-1.-1,9.89,-1.-42,0.1,0.-7,0.-7,-3.-18,0.94,93481.53,674.87
21539,2,0.-98,9.91,0.-84,0.2,0.-11,0.-5,-3.-12,0.94,93479.39,674.87
21583,2,-1.-27,9.82,-1.-44,0.6,0.-4,0.-3,-3.-12,0.94,93479.44,674.21
21627,2,0.-44,9.88,-1.-18,0.3,0.-9,0.-2,-3.-12,0.94,93481.53,674.40
21672,2,0.-50,9.94,-1.-35,0.5,0.-8,0.-4,-3.-12,0.93,93484.77,674.59
21716,2,0.-23,9.91,-1.-56,0.3,0.-9,0.-6,-3.-18,0.93,93479.39,674.49
21762,2,0.-22,9.93,-1.-21,0.3,0.-13,0.-8,-3.-6,0.93,93483.60,674.68
21806,2,-1.-1,9.91,-1.-30,0.4,0.-7,0.-8,-3.-12,0.94,93481.53,674.40
21850,2,-1.-43,9.90,-1.-8,0.4,0.-9,0.-5,-3.-18,0.94,93477.25,674.68
21894,2,0.-89,9.98,-1.-47,0.7,0.1,0.-1,-3.-12,0.93,93476.20,674.87
21938,2,0.3,9.96,-1.-74,0.2,0.0,0.-1,-3.-12,0.93,93480.42,674.49
21982,2,0.14,9.98,-1.-42,0.2,0.-9,0.-4,-3.-12,0.93,93479.39,674.40
22026,2,0.-78,9.82,0.-81,0.4,0.-12,0.-6,-3.-12,0.94,93480.49,674.68
22070,2,0.-79,9.93,-1.-31,0.2,0.-6,0.-6,-3.-18,0.94,93484.77,674.78
22110,2,0.-95,9.79,-1.-47,0.1,0.-3,0.-2,-3.-12,0.94,93482.63,674.78
22154,2,0.36,9.93,-1.-65,0.0,0.-9,0.-6,-3.-12,0.94,93479.39,674.21
22198,2,0.-95,10.0,0.-62,0.0,0.-16,0.-9,-3.-6,0.93,93477.25,675.6
22242,2,-1.-25,9.84,-1.-1,0.0,0.1,0.-6,-3.-12,0.94,93483.67,674.49
22286,2,0.-62,9.38,-2.-79,0.-4,0.-10,0.-10,-3.-18,0.94,93481.53,674.49
22330,2,1.61,10.16,0.-57,0.1,0.-20,0.-10,-3.-12,0.94,93480.42,674.68
22374,2,0.31,9.69,0.-45,0.4,0.-10,0.-19,-3.-18,0.94,93481.53,674.78
22418,2,-1.-48,10.58,0.-64,0.6,0.-4,0.-18,-3.-18,0.94,93478.35,674.30
22458,2,-1.-65,9.96,-1.-38,0.1,0.-12,0.-10,-3.-12,0.93,93487.95,675.35
22502,2,0.-76,10.4,-1.-6,0.1,0.-5,0.-9,-3.-18,0.94,93478.28,674.78
22546,2,0.-96,9.97,0.-61,0.2,0.-9,0.-9,-3.-12,0.94,93479.39,674.68
22590,2,-1.-42,9.94,-1.-9,0.4,0.-5,0.-5,-3.-12,0.94,93483.73,674.40
22634,2,0.-96,10.3,0.-97,0.3,0.-6,0.-1,-3.-12,0.94,93481.53,674.11
22679,2,0.-30,9.93,-1.-9,0.5,0.-7,0.-1,-3.-18,0.94,93480.42,674.30
22723,2,0.-36,10.3,-1.-42,0.4,0.-12,0.-2,-3.-6,0.94,93482.63,674.78
22763,2,0.-52,9.97,0.-50,0.3,0.-15,0.-3,-3.-12,0.93,93478.35,674.40
22807,2,-1.-13,9.88,0.-88,0.5,0.-5,0.-4,-3.-18,0.94,93477.18,675.6
22851,2,0.-27,9.81,0.-82,0.6,0.-11,0.-5,-3.-18,0.94,93478.28,675.26
22895,2,0.-51,9.93,-1.-29,0.7,0.-8,0.-7,-3.-12,0.94,93479.39,674.40
22939,2,0.-10,9.66,0.-90,0.9,0.-7,0.-4,-3.-12,0.93,93477.18,674.88
22983,2,0.-53,9.88,0.-91,0.11,0.-25,0.-7,-3.-12,0.94,93480.42,675.26
23027,2,0.-91,10.12,-1.-14,0.10,0.-5,0.-6,-3.-18,0.93,93478.28,674.40
23071,2,0.-32,9.94,-1.-23,0.9,0.-6,0.-6,-3.-12,0.94,93481.53,674.87
23111,2,0.32,10.0,0.-76,0.9,0.-11,0.-8,-3.-12,0.93,93480.36,674.59
23155,2,-1.-98,9.88,0.-38,0.10,0.-9,0.-10,-3.-12,0.93,93470.82,674.97
23199,2,-1.-27,9.83,-1.-46,0.10,0.-5,0.-6,-3.-6,0.93,93482.57,674.68
23243,2,0.-73,9.94,0.-86,0.11,0.-10,0.-3,-3.-6,0.93,93483.67,674.97
23287,2,0.-47,9.68,-1.-2,0.14,0.-4,0.-3,-3.-12,0.94,93483.67,674.49
23331,2,0.17,9.83,-2.-64,0.11,0.2,0.-3,-3.-12,0.93,93479.32,674.11
23375,2,0.83,9.86,-2.-78,0.-2,0.9,0.-12,-3.-18,0.93,93486.91,674.40
23415,2,0.20,9.98,-1.-80,0.-2,0.-16,0.-15,-3.-12,0.93,93474.0,674.68
23459,2,0.-72,9.83,0.-95,0.-4,0.-18,0.-17,-3.-18,0.93,93480.42,674.87
23503,2,-1.-59,10.5,-1.-26,0.-1,0.-6,0.-18,-3.-18,0.95,93483.73,674.78
23547,2,-1.-51,9.91,0.-93,0.1,0.-18,0.-10,-3.-18,0.93,93481.53,674.87
23591,2,-1.-9,9.84,-1.-7,0.4,0.-9,0.-2,-3.-18,0.93,93476.14,674.97
23635,2,0.-99,9.79,-1.-28,0.8,0.-14,0.-1,-3.-12,0.92,93475.4,674.59
23680,2,-1.-26,9.98,0.-91,0.8,0.-4,0.3,-3.-18,0.93,93482.57,674.49
23724,2,0.75,9.77,-1.-58,0.3,0.10,0.0,-3.-12,0.94,93478.35,675.7
23764,2,0.68,9.96,-1.-49,0.6,0.-7,0.-1,-3.-12,0.94,93487.95,674.59
23808,2,-1.-47,9.90,0.-82,0.9,0.-19,0.-4,-3.-12,0.94,93483.67,675.35
23852,2,-2.-8,9.89,0.-94,0.13,0.-20,0.0,-3.-12,0.93,93484.77,673.92
23896,2,0.74,9.78,-1.-65,0.10,0.12,0.0,-3.-12,0.93,93480.42,675.7
23940,2,1.26,9.86,-1.-44,0.10,0.-12,0.0,-3.-12,0.93,93476.14,674.69
23984,2,0.-18,10.5,-1.-10,0.12,0.-28,0.-8,-3.-6,0.93,93478.28,675.7
24028,2,-1.-41,9.92,-1.-92,0.10,0.-1,0.-6,-3.-18,0.93,93477.18,674.87
24068,2,0.-41,9.75,0.-87,0.12,0.-9,0.-3,-3.-18,0.93,93480.42,674.59
24112,2,-1.-13,9.99,-1.-73,0.12,0.-5,0.-2,-3.-18,0.92,93478.28,674.68
24156,2,0.-32,9.14,-2.-26,0.10,0.0,0.0,-3.-12,0.93,93477.25,674.60
24200,2,0.64,10.7,-1.-48,0.8,0.10,0.-1,-3.-18,0.92,93477.18,674.78
24244,2,0.-65,9.87,-2.-17,0.7,0.-15,0.-5,-3.-18,0.93,93482.50,674.59
24288,2,-1.-8,9.90,-1.-22,0.4,0.-6,0.-1,-3.-18,0.93,93482.57,674.88
24332,2,0.72,9.96,0.-76,0.8,0.1,0.-1,-3.-12,0.92,93486.85,673.83
24376,2,1.10,9.61,-2.-67,0.9,0.-13,0.-5,-3.-18,0.93,93477.18,675.6
24416,2,0.44,9.88,-2.-84,0.2,0.-12,0.-7,-3.-18,0.92,93479.32,675.7
24460,2,0.-31,9.97,0.-61,0.0,0.-21,0.-8,-3.-18,0.93,93482.57,674.88
24504,2,-1.-36,9.99,0.-53,0.6,0.-10,0.-5,-3.-18,0.92,93477.18,674.21
24548,2,0.85,9.81,-1.-93,0.3,0.-4,0.-8,-3.-18,0.92,93479.32,674.31
24592,2,0.-21,9.81,0.-75,0.8,0.-23,0.-6,-3.-18,0.91,93480.36,675.17
24636,2,0.1,9.76,-2.-44,0.4,0.-4,0.-8,-3.-18,0.92,93478.16,674.31
24681,2,-1.-18,9.85,0.-33,0.8,0.-43,0.-3,-3.-12,0.92,93480.36,674.31
24726,2,0.19,10.7,-1.-72,0.5,0.7,0.-6,-3.-12,0.91,93477.18,674.69
24770,2,0.25,9.98,0.-89,0.8,0.-16,0.-8,-3.-18,0.92,93476.2,674.69
24814,2,0.14,9.93,-1.-20,0.13,0.-17,0.-13,-3.-18,0.91,93478.22,674.12
24858,2,0.-44,10.2,-1.-76,0.7,0.0,0.-12,-3.-18,0.92,93471.74,674.22
24902,2,0.73,9.96,-1.-56,0.5,0.-5,0.-15,-3.-18,0.92,93471.80,674.40
24946,2,-1.-57,9.68,-1.-62,0.9,0.-21,0.-15,-3.-12,0.92,93476.8,674.98
24990,2,0.-22,9.83,-2.-5,0.7,0.2,0.-10,-3.-18,0.92,93477.12,674.79
25034,2,0.-41,9.95,-1.-81,0.5,0.-16,0.-8,-3.-6,0.92,93478.28,674.68
25074,2,0.-84,9.87,0.-51,0.5,0.-5,0.-5,-3.-12,0.93,93478.22,674.49
25118,2,1.32,9.72,0.-16,0.9,0.-1,0.-10,-3.-12,0.92,93478.22,674.98
25162,2,0.17,10.4,0.-60,0.15,0.-10,0.-18,-3.-6,0.92,93482.57,675.17
25206,2,-1.-92,9.84,-2.-34,0.14,0.-13,0.-17,-3.-12,0.92,93475.4,674.41
25250,2,0.-45,10.4,0.-76,0.14,0.-12,0.-12,-3.-12,0.92,93478.22,674.69
25294,2,0.-47,9.86,-1.-38,0.18,0.-12,0.-15,-3.-12,0.92,93483.60,674.98
25338,2,0.31,9.86,-2.-19,0.14,0.9,0.-22,-3.-12,0.92,93479.32,675.46
25384,2,-2.-12,9.58,-2.-83,0.13,0.-13,0.-20,-3.-12,0.93,93476.8,674.69
25428,2,-1.-32,9.91,-1.-81,0.8,0.4,0.-13,-3.-6,0.92,93480.36,675.17
25472,2,0.-91,9.77,-1.-45,0.10,0.-3,0.-11,-3.-6,0.92,93483.60,674.60
25516,2,0.-88,10.2,-2.-21,0.10,0.1,0.-12,-3.-6,0.91,93479.26,675.46
25560,2,0.-8,9.87,-2.-36,0.9,0.-10,0.-11,-3.-12,0.92,93481.46,674.98
25604,2,-1.-96,9.67,-1.-89,0.8,0.-13,0.-10,-3.-12,0.91,93476.8,674.79
25648,2,-1.-15,9.79,-1.-70,0.7,0.-1,0.-4,-3.-6,0.92,93477.12,673.74
25693,2,0.36,9.82,-2.0,0.9,0.-10,0.-7,-3.-12,0.92,93477.18,674.78
25733,2,0.-52,9.73,-2.-43,0.7,0.-13,0.-10,-3.-6,0.93,93481.40,674.79
25777,2,0.-46,9.83,-2.-10,0.5,0.-14,0.-11,-3.-18,0.91,93482.57,674.31
25821,2,-1.-45,9.75,-2.-5,0.5,0.-13,0.-9,-3.-6,0.92,93477.12,674.69
25865,2,-1.-17,9.75,-2.-3,0.5,0.-8,0.-7,-3.-12,0.92,93476.8,673.93
25909,2,0.-51,9.86,-1.-33,0.5,0.-8,0.-7,-3.-6,0.92,93479.26,675.36
25953,2,-1.-23,9.74,-1.-59,0.9,0.-19,0.-5,-3.-18,0.92,93474.98,674.59
25997,2,0.-98,9.80,-2.-30,0.7,0.-2,0.-4,-3.-12,0.92,93483.60,674.78
26043,2,0.-41,9.84,-1.-45,0.6,0.-3,0.-6,-3.-12,0.92,93471.80,674.50
26087,2,-1.-4,9.76,-1.-79,0.9,0.-14,0.-8,-3.-12,0.91,93481.46,674.98
26131,2,0.-80,9.79,-2.-14,0.9,0.-4,0.-7,-3.-6,0.92,93484.64,674.89
26175,2,0.-94,9.68,-1.-91,0.9,0.-1,0.-4,-3.0,0.92,93478.22,674.69
26219,2,0.0,9.93,-1.-86,0.6,0.11,0.-4,-3.-12,0.92,93484.64,674.12
26263,2,0.-20,9.79,-2.-18,0.9,0.-11,0.-5,-3.-12,0.92,93474.98,674.41
26307,2,0.-85,9.66,-2.-51,0.6,0.-2,0.-8,-3.-12,0.92,93480.36,675.8
26351,2,0.-41,9.84,-1.-92,0.6,0.-5,0.-7,-3.-12,0.92,93484.71,674.60
26391,2,-1.-14,9.77,-1.-90,0.5,0.-4,0.-9,-3.-12,0.92,93474.98,674.69
26435,2,0.-22,9.83,-1.-88,0.6,0.-5,0.-7,-3.-6,0.92,93484.64,674.88
26479,2,0.-47,9.71,-2.-24,0.6,0.-12,0.-9,-3.-12,0.91,93477.12,674.69
26523,2,-1.-20,9.86,-1.-91,0.5,0.-10,0.-7,-3.0,0.92,93480.36,674.50
26567,2,-1.0,9.70,-2.-26,0.6,0.-15,0.-3,-3.-6,0.92,93477.12,674.22
26611,2,0.-2,9.85,-2.-23,0.4,0.-5,0.-5,-3.-6,0.92,93480.36,674.69
26655,2,0.10,9.71,-2.-18,0.2,0.-13,0.-10,-3.-6,0.92,93479.26,674.69
26702,2,0.-97,9.85,-1.-78,0.1,0.-18,0.-12,-3.-12,0.92,93483.54,674.69
26746,2,-1.-16,9.85,-2.-13,0.0,0.-6,0.-11,-3.-12,0.90,93482.50,674.12
26790,2,-1.0,9.72,-1.-97,0.1,0.-19,0.-9,-3.-6,0.92,93480.30,674.79
26834,2,0.-87,9.71,-2.-15,0.-1,0.-6,0.-7,-3.-12,0.92,93477.12,674.69
26878,2,0.-39,9.76,-2.-17,0.-2,0.-7,0.-7,-3.-12,0.92,93481.46,674.22
26922,2,0.-93,9.79,-1.-84,0.-2,0.-9,0.-8,-3.-6,0.92,93479.26,674.69
26966,2,0.-99,9.76,-1.-89,0.-2,0.-6,0.-7,-3.-12,0.92,93479.26,674.69
27010,2,0.-80,9.85,-1.-90,0.-2,0.-10,0.-6,-3.-12,0.92,93480.36,674.97
27050,2,0.-73,9.82,-1.-53,0.-1,0.-9,0.-5,-3.-6,0.92,93480.30,674.79
27094,2,0.-38,9.88,-1.-41,0.0,0.-13,0.-7,-3.-12,0.91,93478.22,675.27
27138,2,0.-95,9.88,-1.-89,0.1,0.-12,0.-8,-3.-6,0.92,93479.26,674.50
27182,2,0.-80,9.86,-1.-74,0.0,0.-5,0.-7,-3.-12,0.92,93482.50,674.98
27226,2,0.-33,9.85,-1.-58,0.0,0.-9,0.-8,-3.-12,0.92,93479.26,675.8
27270,2,0.-69,9.83,-1.-82,0.1,0.-12,0.-10,-3.-18,0.91,93480.36,674.79
27314,2,0.-93,9.81,-2.-46,0.-2,0.-8,0.-11,-3.-12,0.92,93478.22,675.27
27360,2,0.-51,9.87,-1.-59,0.-4,0.-12,0.-10,-3.-6,0.91,93481.40,673.84
27404,2,0.-76,9.86,-1.-93,0.-4,0.-13,0.-10,-3.-12,0.91,93479.26,674.22
27448,2,0.-53,9.89,-1.-30,0.-5,0.-13,0.-12,-3.-12,0.92,93477.12,674.98
27492,2,-2.-3,9.84,-1.-3,0.-2,0.-16,0.-10,-3.-12,0.91,93481.40,675.17
27536,2,-1.-25,9.83,-1.-76,0.0,0.-5,0.-3,-3.-6,0.92,93482.50,674.69
27580,2,0.-31,9.90,-1.-55,0.0,0.-6,0.-2,-3.-6,0.91,93479.26,674.98
27624,2,0.-33,9.87,-1.-15,0.0,0.-8,0.-4,-3.-6,0.91,93478.16,674.89
27668,2,0.-61,9.87,-1.-58,0.1,0.-12,0.-6,-3.-6,0.92,93467.46,674.79
27709,2,-1.-44,9.92,-1.-26,0.1,0.-9,0.-5,-3.-12,0.91,93478.16,674.60
27753,2,-1.-14,9.85,-1.-10,0.4,0.-10,0.-2,-3.-6,0.92,93472.78,674.69
27797,2,0.-64,9.97,0.-95,0.6,0.-6,0.-1,-3.-12,0.92,93480.30,674.79
27841,2,0.-75,9.89,-1.-38,0.7,0.-2,0.-3,-3.-12,0.91,93481.40,674.60
27885,2,0.-73,9.94,-1.-38,0.8,0.-10,0.-3,-3.-18,0.92,93479.26,674.50
27929,2,0.-94,9.91,-1.-51,0.8,0.-7,0.-2,-3.-12,0.92,93480.36,674.60
27973,2,0.-68,9.90,-1.-18,0.8,0.-5,0.0,-3.-12,0.91,93471.80,674.12
28013,2,0.-56,9.86,-1.-55,0.9,0.-5,0.-1,-3.-18,0.92,93476.2,674.41
28057,2,0.-52,9.87,-1.-50,0.8,0.-3,0.-1,-3.-18,0.91,93476.2,674.60
28101,2,0.-78,9.90,-1.-72,0.9,0.-11,0.-2,-3.-12,0.91,93479.26,674.89
28145,2,0.-72,9.84,-1.-75,0.7,0.-6,0.-1,-3.-12,0.91,93478.16,674.89
28189,2,0.-47,9.90,-1.-68,0.6,0.-6,0.0,-3.-18,0.91,93474.98,674.79
28233,2,0.-16,9.93,-1.-71,0.5,0.-8,0.-1,-3.-12,0.91,93471.74,675.8
28277,2,0.-74,9.85,-1.-68,0.4,0.-7,0.-1,-3.-12,0.92,93483.54,675.17
28321,2,0.-16,9.94,-1.-31,0.5,0.-6,0.-1,-3.-12,0.92,93480.36,675.17
28361,2,0.-24,9.89,-1.-52,0.5,0.-10,0.-2,-3.-6,0.92,93483.60,674.41
28405,2,0.-20,9.94,-1.-39,0.6,0.-9,0.-2,-3.-12,0.91,93477.6,674.89
28449,2,0.-35,9.93,-1.-55,0.6,0.-7,0.-4,-3.-18,0.92,93483.54,674.50
28493,2,0.-36,9.93,-1.-24,0.8,0.-8,0.-4,-3.-12,0.91,93479.26,675.46
28537,2,0.-54,9.87,-2.-23,0.7,0.-8,0.-4,-3.-18,0.91,93480.30,675.7
28581,2,0.-9,9.93,-1.-40,0.4,0.-6,0.-4,-3.-12,0.91,93476.8,674.31
28625,2,0.-63,9.89,-1.-60,0.6,0.-9,0.-4,-3.-18,0.92,93479.20,675.36
28671,2,0.-66,10.2,-2.0,0.5,0.-7,0.-3,-3.-12,0.91,93484.58,675.36
28716,2,0.-6,9.93,-1.-62,0.3,0.-6,0.-2,-3.-12,0.91,93476.8,674.89
28760,2,0.0,9.87,-1.-99,0.2,0.-6,0.-3,-3.-12,0.91,93478.16,674.89
28804,2,0.-19,9.98,-1.-84,0.0,0.-10,0.-4,-3.-12,0.91,93474.92,675.55
28848,2,0.-93,9.81,-1.-15,0.0,0.-11,0.-3,-3.-12,0.91,93482.44,674.60
28892,2,0.-52,9.93,-1.-83,0.0,0.-4,0.-1,-3.-18,0.91,93473.88,674.22
28936,2,0.6,9.91,-2.-1,0.-2,0.-6,0.0,-3.-6,0.91,93479.26,674.98
28980,2,0.-35,9.97,-1.-45,0.-3,0.-6,0.0,-3.-6,0.91,93476.2,674.79
29020,2,0.11,10.5,-1.-70,0.-4,0.-3,0.0,-3.-12,0.91,93473.88,674.50
29064,2,0.45,9.92,-1.-14,0.-5,0.-11,0.0,-3.-12,0.91,93481.34,674.50
29108,2,0.22,10.1,0.-68,0.-3,0.-5,0.-2,-3.-12,0.91,93470.64,674.99
29152,2,0.47,9.94,-1.-44,0.-1,0.-16,0.-5,-3.-12,0.91,93479.20,674.69
29196,2,0.-28,9.98,0.-84,0.0,0.-14,0.-6,-3.-6,0.91,93481.34,674.98
29240,2,0.44,9.93,-1.-6,0.2,0.-13,0.-6,-3.-6,0.91,93479.20,674.60
29284,2,0.4,9.96,-1.-50,0.2,0.-11,0.-8,-3.-12,0.91,93471.67,675.27
29328,2,0.10,9.98,0.-79,0.2,0.-6,0.-8,-3.-12,0.91,93474.98,674.79
29374,2,0.-4,9.92,-1.-24,0.5,0.-11,0.-9,-3.-12,0.92,93470.70,675.8
29418,2,0.0,10.1,0.-90,0.5,0.-8,0.-8,-3.-12,0.92,93482.50,675.17
29462,2,0.5,9.89,-1.-43,0.5,0.-11,0.-9,-3.-12,0.91,93482.50,674.79
29506,2,0.-16,10.1,-1.-1,0.6,0.-9,0.-9,-3.-6,0.91,93470.70,674.50
29550,2,0.-26,9.92,-1.-23,0.6,0.-6,0.-7,-3.-18,0.92,93482.50,674.98
29594,2,0.28,9.98,-1.-27,0.7,0.-6,0.-8,-3.-18,0.91,93482.44,675.36
29638,2,0.11,9.98,-1.-34,0.7,0.-8,0.-10,-3.-12,0.91,93478.16,674.69
29684,2,0.-18,9.99,-1.-63,0.5,0.-10,0.-10,-3.-12,0.92,93475.96,674.31
29729,2,0.-22,9.95,-1.-19,0.5,0.-11,0.-9,-3.-12,0.91,93483.60,675.27
29773,2,0.-13,9.98,-1.-18,0.5,0.-8,0.-9,-3.-12,0.91,93477.12,674.69
29817,2,0.-66,9.93,-1.-11,0.5,0.-10,0.-8,-3.-12,0.91,93482.44,674.50
29861,2,0.-24,9.96,-1.-7,0.6,0.-7,0.-6,-3.-12,0.91,93482.44,674.98
29905,2,0.-13,9.89,-1.-17,0.6,0.-8,0.-5,-3.-25,0.92,93483.48,674.60
29949,2,0.-13,10.2,0.-85,0.6,0.-7,0.-5,-3.-18,0.90,93479.20,674.89
29993,2,0.29,9.95,-1.-33,0.8,0.-7,0.-6,-3.-12,0.91,93479.26,674.79
30033,2,0.10,10.4,-1.-37,0.8,0.-10,0.-7,-3.-6,0.92,93478.16,674.60
30087,2,0.-10,9.96,-1.-6,0.10,0.-8,0.-8,-3.-12,0.90,93482.44,675.18
30131,2,0.-7,9.93,-1.-45,0.10,0.-9,0.-9,-3.-12,0.91,93485.62,674.51
30175,2,0.-14,9.98,-1.-25,0.9,0.-7,0.-8,-3.-12,0.91,93480.30,674.89
30219,2,0.-16,10.0,0.-79,0.10,0.-9,0.-8,-3.-12,0.91,93486.72,674.50
30263,2,0.-18,9.98,-1.-55,0.13,0.-6,0.-8,-3.-12,0.91,93472.78,674.60
30307,2,0.-28,9.90,-1.-59,0.13,0.-8,0.-7,-3.-12,0.92,93477.12,673.84
30348,2,0.6,9.94,-1.-40,0.12,0.-6,0.-6,-3.-12,0.92,93473.88,674.31
30392,2,0.-21,9.93,-1.-40,0.12,0.-7,0.-7,-3.-6,0.91,93480.30,674.89
30436,2,0.-17,9.94,-1.-44,0.13,0.-6,0.-6,-3.-12,0.91,93474.98,674.79
30480,2,0.-15,9.95,-1.-59,0.13,0.-6,0.-6,-3.-12,0.91,93484.64,674.69
30524,2,0.-20,9.93,-1.-38,0.14,0.-8,0.-6,-3.-12,0.91,93486.78,674.50
30568,2,0.6,9.86,-1.-93,0.13,0.-4,0.-6,-3.-12,0.91,93479.26,674.31
30612,2,0.-8,9.85,-1.-85,0.12,0.-10,0.-6,-3.-12,0.91,93483.54,674.12
30656,2,0.-36,10.15,-1.-64,0.11,0.-7,0.-5,-3.-12,0.91,93473.94,674.60
30696,2,0.0,9.83,-1.-93,0.12,0.-8,0.-4,-3.-12,0.91,93474.92,674.50
30741,2,0.38,9.90,-1.-48,0.11,0.-6,0.-6,-3.-12,0.91,93480.36,674.60
30785,2,0.-26,9.82,-2.-7,0.12,0.-13,0.-7,-3.-12,0.91,93479.26,675.27
30829,2,0.-9,9.82,-1.-79,0.11,0.-3,0.-5,-3.-6,0.92,93480.30,675.17
30873,2,0.44,9.88,-1.-78,0.12,0.-5,0.-7,-3.-6,0.91,93476.2,675.36
30917,2,0.-43,9.81,-1.-90,0.11,0.-9,0.-7,-3.0,0.91,93485.68,674.69
30961,2,0.-4,9.80,-2.-35,0.10,0.-5,0.-5,-3.-6,0.91,93477.12,674.89
31007,2,0.-2,9.85,-2.-44,0.7,0.-7,0.-5,-3.-18,0.90,93480.30,675.17
31051,2,0.8,9.87,-1.-66,0.6,0.-6,0.-6,-3.-12,0.91,93480.30,675.17
31095,2,0.-33,9.82,-1.-90,0.7,0.-9,0.-5,-3.-6,0.91,93476.8,675.17
31139,2,0.-36,9.89,-1.-50,0.7,0.-5,0.-2,-3.-6,0.91,93481.40,674.79
31183,2,0.-9,9.83,-2.-59,0.8,0.-3,0.-1,-3.-6,0.92,93480.36,674.79
31227,2,0.-77,9.52,-3.-12,0.0,0.-5,0.2,-3.-6,0.91,93476.8,675.8
31271,2,0.40,9.93,-2.-39,0.0,0.0,0.3,-3.-6,0.91,93478.16,674.50
31315,2,0.57,9.81,-2.-44,0.-7,0.0,0.0,-3.-12,0.91,93478.16,674.50
31355,2,0.-45,9.83,-1.-15,0.-6,0.-15,0.2,-3.0,0.92,93481.40,674.89
31399,2,0.90,9.91,-1.-21,0.-4,0.-7,0.3,-3.-12,0.92,93478.16,674.50
31443,2,0.-12,9.81,-1.-28,0.0,0.-7,0.4,-3.-6,0.91,93474.98,674.60
31487,2,0.25,9.82,-2.-5,0.-2,0.10,0.3,-3.-6,0.91,93481.34,674.31
31531,2,1.22,9.93,-1.-47,0.2,0.-9,0.4,-3.-6,0.91,93479.26,674.99
31575,2,0.98,9.81,-2.-27,0.1,0.-5,0.0,-3.-18,0.91,93476.2,674.69
31619,2,0.36,9.84,-1.-59,0.0,0.-5,0.0,-3.-12,0.92,93480.30,674.60
31663,2,1.26,9.93,-2.-23,0.-1,0.-5,0.-2,-3.-12,0.92,93481.40,675.27
31703,2,0.99,9.82,-2.-36,0.-5,0.-6,0.-6,-3.-18,0.92,93484.64,675.8
31748,2,0.43,9.75,-1.-57,0.-7,0.-12,0.-6,-3.-6,0.91,93482.50,674.89
31792,2,0.62,9.86,-1.-13,0.-7,0.-4,0.-7,-3.-12,0.91,93476.2,674.89
31836,2,0.52,9.89,-1.-11,0.-7,0.-9,0.-7,-3.-6,0.92,93479.26,674.69
31880,2,0.42,9.94,-1.-17,0.-5,0.-10,0.-6,-3.-18,0.91,93476.2,674.60
31924,2,0.64,9.93,-2.-9,0.-6,0.-10,0.-6,-3.-6,0.92,93482.44,674.69
31968,2,0.18,9.88,-1.-4,0.-9,0.-9,0.-5,-3.-12,0.91,93478.16,675.8
32012,2,0.55,9.80,-1.-88,0.-9,0.-14,0.-3,-3.-12,0.92,93474.98,674.50
32053,2,1.52,10.20,-1.-37,0.-12,0.-3,0.-7,-3.-6,0.91,93473.94,674.60
32097,2,0.63,9.96,0.-30,0.-9,0.-19,0.-11,-3.-12,0.92,93474.98,674.50
32141,2,0.-3,9.89,-1.-56,0.-10,0.-10,0.-7,-3.-6,0.91,93471.74,674.69
32185,2,0.66,9.70,0.1,0.-7,0.-18,0.-6,-3.-6,0.92,93480.36,674.50
32229,2,0.41,10.4,0.-49,0.-5,0.-5,0.-5,-3.-12,0.91,93474.92,675.27
32273,2,0.99,10.0,0.-46,0.-3,0.-15,0.-6,-3.-6,0.91,93472.84,675.17
32317,2,0.29,10.4,0.-35,0.0,0.-6,0.-8,-3.-6,0.91,93477.12,674.98
32357,2,0.40,9.98,-1.-12,0.0,0.-9,0.-5,-3.-6,0.91,93478.22,674.79
32401,2,0.92,10.7,0.-35,0.0,0.-4,0.-6,-3.-12,0.90,93479.26,674.79
32445,2,1.8,10.2,0.-45,0.2,0.-13,0.-9,-3.-6,0.91,93480.30,674.60
32489,2,0.45,9.97,-1.-15,0.2,0.-7,0.-9,-3.-18,0.92,93477.12,674.88
32533,2,0.71,9.94,0.-72,0.0,0.-12,0.-8,-3.-12,0.91,93486.72,674.98
32577,2,0.79,10.2,0.-50,0.1,0.-10,0.-9,-3.-6,0.92,93476.2,674.50
32621,2,0.30,9.99,0.-84,0.1,0.-13,0.-10,-3.-6,0.91,93478.16,675.17
32665,2,0.19,10.6,0.-10,0.3,0.-6,0.-8,-3.-12,0.91,93479.26,675.46
32705,2,0.48,10.0,0.-89,0.4,0.-3,0.-7,-3.-6,0.91,93479.32,675.46
32750,2,0.73,9.99,0.-62,0.3,0.-9,0.-7,-3.-18,0.92,93479.20,675.8
32794,2,0.89,9.95,0.-76,0.3,0.-5,0.-8,-3.-12,0.91,93473.88,675.46
32838,2,0.73,9.97,0.-84,0.2,0.-11,0.-11,-3.-12,0.92,93473.88,674.69
32882,2,0.25,10.2,0.-67,0.2,0.-7,0.-11,-3.-6,0.91,93479.26,674.79
32926,2,0.39,9.99,0.-66,0.2,0.-13,0.-10,-3.-12,0.91,93472.84,674.50
32970,2,0.-5,10.12,0.-66,0.3,0.-9,0.-8,-3.-12,0.91,93479.20,674.89
33014,2,0.31,10.15,0.-65,0.3,0.-11,0.-6,-3.-12,0.91,93477.12,675.8
33054,2,0.31,10.8,0.-30,0.4,0.-9,0.-5,-3.-12,0.91,93480.36,674.69
33098,2,0.43,9.97,0.-62,0.5,0.-5,0.-4,-3.-12,0.91,93481.40,674.89
33142,2,0.49,9.95,0.-82,0.5,0.-9,0.-4,-3.-12,0.91,93479.26,675.8
33186,2,0.65,10.2,0.-68,0.3,0.-7,0.-4,-3.-12,0.91,93475.96,674.31
33230,2,0.62,9.93,0.-78,0.3,0.-7,0.-4,-3.-12,0.92,93483.54,674.79
33274,2,0.71,10.16,0.-62,0.3,0.-10,0.-6,-3.-12,0.91,93477.6,674.69
33318,2,0.62,10.7,0.-56,0.3,0.-9,0.-7,-3.-6,0.91,93470.64,674.60
33364,2,0.59,10.10,0.-86,0.3,0.-8,0.-6,-3.-12,0.91,93471.67,674.98
33408,2,1.47,10.5,0.-21,0.2,0.-11,0.-10,-3.-12,0.91,93473.82,674.98
33452,2,0.-6,9.93,0.-79,0.5,0.-15,0.-9,-3.-12,0.91,93473.88,674.98
33496,2,0.7,10.46,-1.-9,0.3,0.-11,0.-7,-3.-12,0.90,93478.16,674.89
33540,2,0.-47,10.31,0.-99,0.2,0.-10,0.0,-3.-12,0.91,93473.88,674.98
33584,2,1.20,12.42,0.12,0.-1,0.48,0.-15,-3.-12,0.91,93476.2,674.22
33628,2,0.81,10.50,-1.-47,0.0,0.-12,0.-5,-3.-12,0.92,93482.44,674.98
33672,2,0.-3,10.21,0.60,0.6,0.-14,0.-5,-3.-12,0.92,93478.22,674.69
33712,2,0.3,9.84,0.-56,0.9,0.-10,0.-2,-3.-6,0.92,93481.40,674.50
33757,2,0.1,9.99,0.-53,0.6,0.-10,0.-1,-3.0,0.93,93476.2,674.50
33801,2,0.84,10.7,0.-72,0.4,0.-7,0.-1,-3.-6,0.91,93478.16,675.17
33845,2,0.84,10.3,0.-26,0.4,0.-11,0.-3,-3.-6,0.91,93481.40,674.50
33889,2,0.46,9.98,-1.-3,0.3,0.-8,0.-2,-3.-6,0.91,93474.92,674.79
33933,2,1.40,9.93,-1.-6,0.0,0.-4,0.-3,-3.-6,0.90,93474.98,674.79
33977,2,0.98,10.1,0.-61,0.-2,0.-9,0.-6,-3.-12,0.91,93481.40,674.98
34021,2,0.47,10.4,0.20,0.0,0.-9,0.-7,-3.-6,0.90,93476.8,674.69
34061,2,0.65,10.0,0.-57,0.0,0.-10,0.-5,-3.-12,0.91,93476.8,674.50
34105,2,0.90,9.97,0.5,0.1,0.-9,0.-6,-3.-18,0.92,93475.96,674.69
34149,2,1.15,10.2,0.-4,0.4,0.-9,0.-9,-3.-6,0.91,93477.12,675.27
34193,2,0.40,10.6,0.-85,0.4,0.-10,0.-11,-3.-12,0.91,93469.60,675.8
34237,2,1.13,9.93,0.-73,0.0,0.-8,0.-11,-3.-12,0.91,93469.60,674.41
34281,2,0.97,10.1,0.-72,0.-1,0.-9,0.-14,-3.-12,0.92,93482.44,674.79
34325,2,0.62,10.2,0.64,0.0,0.-9,0.-15,-3.-6,0.91,93485.68,674.98
34369,2,0.59,10.6,0.23,0.5,0.-11,0.-15,-3.-12,0.92,93476.8,675.8
34409,2,0.19,10.3,0.-33,0.6,0.-10,0.-14,-3.-12,0.91,93473.88,674.79
34453,2,0.63,10.5,0.-41,0.6,0.-9,0.-12,-3.-12,0.91,93477.12,675.27
34497,2,0.39,10.5,0.-48,0.5,0.-11,0.-13,-3.-12,0.91,93486.78,674.98
34541,2,0.12,10.0,-1.-52,0.0,0.-10,0.-11,-3.-6,0.91,93477.6,675.36
34585,2,0.93,10.8,0.-7,0.-3,0.-8,0.-11,-3.-12,0.91,93478.16,674.70
34629,2,0.87,10.4,0.39,0.-1,0.-10,0.-14,-3.-12,0.91,93480.30,674.79
34673,2,2.4,10.4,0.-86,0.0,0.-11,0.-20,-3.-6,0.92,93479.26,674.60
34719,2,0.85,10.22,0.-8,0.-3,0.-13,0.-28,-3.-12,0.91,93474.92,675.56
34764,2,-4.-8,9.64,0.40,0.7,0.-26,0.-5,-3.-12,0.91,93473.88,674.51
34808,2,2.87,10.11,0.-42,0.4,0.0,0.0,-3.-6,0.90,93482.38,674.69
34852,2,0.-49,10.3,0.-5,0.6,0.-3,0.-11,-3.-12,0.91,93480.30,674.79
34896,2,0.29,10.6,0.-49,0.5,0.-10,0.-8,-3.0,0.92,93477.6,674.32
34940,2,0.-31,10.5,0.34,0.5,0.-8,0.-5,-3.-6,0.92,93479.26,674.51
34984,2,0.28,10.2,0.7,0.7,0.-3,0.-3,-3.-12,0.92,93479.20,674.70
35028,2,0.9,10.2,0.-42,0.7,0.-5,0.-3,-3.-6,0.92,93481.40,674.41
35068,2,0.77,10.4,0.13,0.6,0.-5,0.-1,-3.-12,0.91,93477.12,675.8
35112,2,0.51,10.5,0.0,0.8,0.-6,0.-3,-3.-12,0.91,93478.16,674.41
35156,2,0.61,10.8,0.3,0.9,0.-8,0.-5,-3.-6,0.92,93477.12,675.17
35200,2,0.32,10.3,0.-13,0.10,0.-7,0.-6,-3.0,0.91,93479.26,674.98
35244,2,0.65,10.4,0.-28,0.11,0.-5,0.-5,-3.0,0.91,93477.6,674.69
35288,2,0.44,10.5,0.-42,0.10,0.-6,0.-8,-3.-6,0.91,93474.92,674.89
35332,2,0.37,10.4,0.-44,0.9,0.-6,0.-8,-3.-6,0.91,93472.78,674.89
35376,2,0.56,10.9,0.-55,0.8,0.-7,0.-8,-3.-6,0.90,93476.2,675.27
35416,2,0.74,9.98,0.-52,0.6,0.-7,0.-9,-3.-6,0.91,93483.54,674.60
35460,2,0.75,10.4,0.-64,0.5,0.-8,0.-11,-3.-6,0.91,93480.30,674.3
35504,2,0.28,10.7,0.-51,0.3,0.-9,0.-13,-3.-6,0.91,93466.35,674.79
35548,2,0.0,10.4,0.-41,0.2,0.-10,0.-12,-3.-6,0.91,93479.20,674.51
35592,2,0.-13,10.4,0.-10,0.2,0.-8,0.-9,-3.-6,0.90,93476.2,674.70
35636,2,0.2,10.4,0.-10,0.3,0.-8,0.-6,-3.-6,0.91,93475.96,675.8
35680,2,0.21,10.4,0.-8,0.5,0.-8,0.-6,-3.0,0.91,93479.20,675.9
35724,2,0.24,9.99,0.-37,0.5,0.-8,0.-6,-3.0,0.91,93480.30,674.50
35765,2,0.23,10.3,0.-12,0.5,0.-8,0.-5,-3.-6,0.91,93481.34,675.17
35809,2,0.57,10.1,0.5,0.7,0.-8,0.-5,-3.-6,0.91,93479.20,674.98
35853,2,0.33,10.0,0.0,0.9,0.-7,0.-8,-3.0,0.92,93481.40,674.89
35897,2,0.20,10.3,0.-5,0.11,0.-6,0.-7,-3.-6,0.90,93481.34,674.31
35941,2,0.60,9.99,0.-31,0.12,0.-5,0.-8,-3.0,0.91,93484.58,674.79
35985,2,0.32,10.4,0.-35,0.12,0.-5,0.-8,-3.-6,0.91,93475.96,674.69
36029,2,0.41,10.4,0.-32,0.12,0.-5,0.-8,-3.0,0.91,93476.2,675.36
36073,2,0.22,10.0,0.-50,0.13,0.-4,0.-9,-3.-6,0.91,93476.2,674.50
36113,2,0.-9,9.97,-1.-8,0.11,0.-4,0.-7,-3.-6,0.90,93481.40,675.17
36157,2,0.-66,9.94,-1.0,0.8,0.-9,0.-3,-3.-6,0.91,93478.16,674.79
36201,2,0.60,10.0,0.-22,0.8,0.-9,0.1,-3.-12,0.91,93479.20,674.70
36245,2,1.11,10.8,0.-52,0.8,0.-6,0.-1,-3.-12,0.91,93482.44,675.8
36289,2,1.14,10.4,0.-61,0.8,0.-6,0.-6,-3.-12,0.91,93478.16,674.79
36333,2,0.94,10.0,0.-97,0.7,0.-7,0.-10,-3.-12,0.91,93480.30,674.12
36377,2,0.45,9.99,-1.-30,0.3,0.-10,0.-13,-3.-6,0.91,93470.57,674.60
36421,2,0.53,10.5,0.-90,0.0,0.-13,0.-14,-3.-6,0.90,93480.30,674.60
36461,2,0.-16,10.1,0.-75,0.-2,0.-14,0.-13,-3.-12,0.91,93482.44,674.3
36505,2,0.-24,10.4,0.-3,0.-2,0.-16,0.-10,-3.-6,0.90,93480.24,674.89
36549,2,0.0,9.99,0.20,0.0,0.-10,0.-6,-3.-6,0.90,93480.30,674.89
36593,2,0.33,10.2,0.-6,0.3,0.-7,0.-5,-3.-6,0.90,93478.10,675.9
36637,2,0.56,10.5,0.-45,0.4,0.-8,0.-6,-3.-6,0.90,93481.28,674.99
36681,2,0.46,10.7,0.-18,0.4,0.-9,0.-7,-3.-6,0.90,93477.6,674.99
36725,2,0.45,10.4,0.-15,0.6,0.-8,0.-8,-3.-6,0.89,93481.28,674.52
36772,2,0.16,9.98,0.-36,0.7,0.-7,0.-8,-3.-12,0.90,93479.14,674.99
36816,2,0.34,10.0,0.-41,0.7,0.-8,0.-7,-3.-12,0.90,93480.17,674.42
36860,2,0.26,10.0,0.-55,0.7,0.-8,0.-7,-3.-12,0.90,93481.28,674.61
36904,2,0.26,10.1,0.-53,0.6,0.-9,0.-7,-3.-6,0.90,93480.17,674.32
36948,2,0.56,10.4,0.-46,0.6,0.-9,0.-8,-3.-12,0.90,93479.8,674.99
36992,2,0.38,10.2,0.-51,0.6,0.-9,0.-8,-3.-6,0.89,93473.75,674.61
37036,2,0.41,10.2,0.-34,0.5,0.-8,0.-7,-3.-6,0.90,93478.3,674.61
37080,2,0.37,10.3,0.-35,0.6,0.-7,0.-8,-3.0,0.89,93480.17,674.61
37126,2,0.27,10.4,0.-63,0.6,0.-8,0.-8,-3.-6,0.89,93476.93,675.9
37170,2,0.40,9.99,0.-56,0.5,0.-8,0.-7,-3.-6,0.90,93472.65,674.52
37214,2,0.39,9.99,0.-53,0.5,0.-8,0.-7,-3.-6,0.90,93481.22,674.42
37258,2,0.45,10.3,0.-54,0.5,0.-9,0.-8,-3.-6,0.90,93473.75,675.9
37303,2,0.39,10.0,0.-52,0.4,0.-9,0.-9,-3.-12,0.89,93483.42,675.47
37347,2,0.31,10.1,0.-58,0.4,0.-10,0.-10,-3.-6,0.89,93479.8,674.99
37391,2,0.12,10.1,0.-35,0.4,0.-10,0.-9,-3.-6,0.90,93477.0,675.9
37435,2,0.16,10.3,0.-26,0.5,0.-9,0.-8,-3.-6,0.90,93480.24,674.32
37481,2,0.18,10.3,0.-50,0.5,0.-8,0.-7,-3.-6,0.89,93477.0,674.71
37525,2,0.27,10.2,0.-42,0.5,0.-9,0.-7,-3.-12,0.89,93475.89,674.52
37569,2,0.25,10.8,0.-47,0.6,0.-8,0.-7,-3.-6,0.90,93479.14,675.18
37613,2,0.17,10.4,0.-47,0.5,0.-8,0.-7,-3.-6,0.90,93479.14,675.37
37657,2,0.25,10.4,0.-37,0.6,0.-7,0.-6,-3.-6,0.90,93472.71,675.47
37701,2,0.27,10.1,0.-62,0.6,0.-6,0.-5,-3.-12,0.90,93478.10,675.9
37745,2,0.44,10.2,0.-71,0.5,0.-8,0.-6,-3.-6,0.90,93480.24,675.66
37790,2,0.36,10.1,0.-40,0.5,0.-9,0.-7,-3.-6,0.90,93473.82,675.8
37830,2,0.48,10.3,0.-35,0.5,0.-8,0.-7,-3.-6,0.90,93474.92,674.70
37874,2,0.33,10.0,0.-52,0.6,0.-8,0.-7,-3.-12,0.90,93481.28,675.9
37918,2,0.32,10.4,0.-36,0.6,0.-9,0.-7,-3.-6,0.90,93477.0,674.99
37962,2,0.29,10.2,0.-43,0.6,0.-7,0.-6,-3.-6,0.90,93478.10,674.42
38006,2,0.25,10.2,0.-55,0.6,0.-7,0.-6,-3.-6,0.90,93472.71,674.89
38050,2,0.41,10.3,0.-63,0.6,0.-7,0.-6,-3.-12,0.90,93473.88,675.18
38094,2,0.31,10.4,0.-73,0.5,0.-8,0.-6,-3.-12,0.91,93477.6,674.51
38138,2,0.38,9.99,0.-79,0.4,0.-9,0.-7,-3.-12,0.90,93481.40,674.80
38178,2,0.45,10.2,0.-72,0.3,0.-10,0.-7,-3.-6,0.90,93480.30,674.79
38222,2,0.41,10.5,0.-32,0.3,0.-10,0.-7,-3.0,0.91,93473.82,674.60
38266,2,0.44,10.3,0.-34,0.4,0.-9,0.-8,-3.-6,0.90,93477.6,674.60
38310,2,0.33,10.0,0.-41,0.4,0.-9,0.-8,-3.-6,0.90,93471.67,674.51
38354,2,0.40,10.4,0.-31,0.5,0.-8,0.-7,-3.-6,0.91,93479.20,674.89
38398,2,0.36,10.0,0.-36,0.6,0.-8,0.-8,-3.0,0.90,93480.30,674.79
38442,2,0.25,10.1,0.-67,0.6,0.-8,0.-8,-3.-6,0.91,93475.96,674.61
38486,2,0.31,10.3,0.-57,0.5,0.-8,0.-7,-3.-6,0.90,93473.82,674.79
38526,2,0.36,10.3,0.-69,0.5,0.-8,0.-8,-3.-6,0.91,93481.34,675.27
38570,2,0.39,10.1,0.-71,0.4,0.-9,0.-7,-3.-12,0.90,93478.10,675.17
38614,2,0.42,10.2,0.-52,0.3,0.-9,0.-7,-3.0,0.91,93468.50,674.50
38658,2,0.27,10.2,0.-34,0.3,0.-9,0.-8,-3.-6,0.91,93477.6,675.8
38702,2,0.30,10.4,0.-30,0.4,0.-9,0.-7,-3.-12,0.91,93478.10,674.70
38746,2,0.34,10.0,0.-35,0.5,0.-8,0.-8,-3.-6,0.90,93475.96,675.18
38791,2,0.39,10.1,0.-44,0.6,0.-8,0.-8,-3.-12,0.91,93477.6,674.22
38835,2,0.39,10.2,0.-51,0.6,0.-8,0.-8,-3.-12,0.91,93479.20,674.50
38875,2,0.18,9.99,0.-50,0.5,0.-8,0.-8,-3.-18,0.90,93483.48,674.89
38919,2,0.42,10.0,0.-45,0.6,0.-8,0.-8,-3.-6,0.90,93480.30,674.89
38963,2,0.27,10.2,0.-69,0.5,0.-7,0.-7,-3.-6,0.90,93478.16,674.89
39007,2,0.32,10.1,0.-59,0.4,0.-9,0.-6,-3.-6,0.90,93480.24,675.18
39051,2,0.43,10.5,0.-44,0.4,0.-9,0.-7,-3.-6,0.90,93481.34,675.27
39095,2,0.33,10.4,0.-39,0.5,0.-9,0.-7,-3.-12,0.91,93477.6,674.60
39139,2,0.43,10.0,0.-43,0.5,0.-9,0.-7,-3.-6,0.90,93479.20,674.70
39183,2,0.37,9.97,0.-48,0.5,0.-8,0.-7,-3.-6,0.90,93481.40,674.98
39223,2,0.34,10.0,0.-45,0.5,0.-8,0.-8,-3.-6,0.91,93469.53,674.89
39267,2,0.33,9.99,0.-50,0.5,0.-8,0.-7,-3.-6,0.91,93473.82,674.79
39311,2,0.36,10.3,0.-44,0.5,0.-8,0.-7,-3.-6,0.90,93480.24,674.70
39355,2,0.27,10.1,0.-58,0.5,0.-8,0.-7,-3.0,0.90,93478.16,674.70
39399,2,0.38,10.3,0.-65,0.5,0.-9,0.-8,-3.0,0.90,93479.14,674.70
39443,2,0.57,10.0,0.-61,0.4,0.-10,0.-8,-3.0,0.91,93479.20,674.41
39487,2,0.19,10.3,0.-58,0.4,0.-9,0.-9,-3.-6,0.90,93482.44,674.23
39533,2,0.-38,9.95,0.-57,0.3,0.-10,0.-7,-3.-6,0.90,93478.16,675.8
39577,2,0.4,10.6,0.-25,0.4,0.-9,0.-4,-3.-6,0.91,93472.78,673.94
39621,2,0.73,10.3,0.-34,0.5,0.-7,0.-5,-3.-6,0.91,93477.12,674.89
39665,2,0.68,10.4,0.-59,0.5,0.-7,0.-6,-3.-12,0.90,93482.38,674.89
39709,2,0.56,10.1,0.-48,0.5,0.-9,0.-8,-3.-12,0.91,93481.34,675.27
39753,2,0.30,9.99,0.-60,0.5,0.-9,0.-9,-3.-6,0.90,93473.82,675.8
39798,2,0.4,10.1,0.-47,0.4,0.-9,0.-8,-3.-6,0.90,93475.96,675.8
39842,2,0.24,10.1,0.-45,0.4,0.-8,0.-6,-3.-6,0.90,93468.43,674.70
39888,2,0.11,10.4,0.-37,0.4,0.-8,0.-5,-3.-6,0.90,93480.24,674.51
39932,2,0.55,10.1,0.-22,0.5,0.-7,0.-4,-3.0,0.90,93477.6,675.28
39976,2,0.35,10.7,0.-58,0.6,0.-6,0.-6,-3.-6,0.90,93475.96,674.89
40020,2,0.37,10.4,0.-54,0.6,0.-9,0.-6,-3.0,0.90,93473.82,675.17
40064,2,0.37,10.0,0.-72,0.5,0.-7,0.-6,-3.-12,0.89,93477.6,674.32
40119,2,0.38,9.99,0.-86,0.2,0.-9,0.-5,-3.0,0.90,93480.17,675.0
40163,2,0.47,9.98,0.-65,0.0,0.-11,0.-5,-3.-6,0.90,93478.3,674.51
40207,2,0.39,10.2,0.-22,0.0,0.-12,0.-6,-3.0,0.90,93480.17,674.89
40248,2,0.46,10.4,0.-7,0.2,0.-11,0.-7,-3.0,0.90,93474.85,674.61
40292,2,0.46,10.3,0.-19,0.3,0.-9,0.-7,-3.0,0.91,93475.96,674.89
40336,2,0.44,10.5,0.-20,0.4,0.-8,0.-7,-3.-6,0.91,93475.96,674.23
40380,2,0.49,10.6,0.-24,0.5,0.-7,0.-7,-3.0,0.91,93474.85,675.9
40424,2,0.43,10.3,0.-50,0.6,0.-8,0.-8,-3.-6,0.90,93475.96,674.70
40468,2,0.31,10.2,0.-27,0.6,0.-8,0.-8,-3.0,0.90,93471.61,674.80
40512,2,0.21,10.1,0.-64,0.6,0.-7,0.-7,-3.-6,0.90,93478.16,674.80
40556,2,0.15,10.3,0.-51,0.4,0.-7,0.-6,-3.-12,0.90,93479.20,674.41
40602,2,0.52,10.4,0.-21,0.4,0.-6,0.-4,-3.-12,0.90,93470.57,674.99
40646,2,0.70,10.6,0.-49,0.6,0.-8,0.-6,-3.0,0.90,93483.42,675.9
40690,2,0.12,10.0,0.-53,0.4,0.-9,0.-6,-3.-12,0.90,93478.3,674.51
40734,2,0.93,10.2,0.-30,0.4,0.-10,0.-5,-3.-6,0.91,93472.71,674.61
40778,2,0.28,10.3,0.-34,0.4,0.-7,0.-9,-3.-12,0.90,93477.0,674.80
40823,2,0.30,10.0,0.-64,0.4,0.-8,0.-9,-3.-6,0.90,93466.29,674.42
40867,2,0.25,9.97,0.-53,0.3,0.-9,0.-7,-3.-6,0.90,93472.71,674.99
40911,2,0.-35,9.98,0.-51,0.2,0.-9,0.-6,-3.-6,0.90,93472.78,675.8
40951,2,0.-23,10.0,0.18,0.2,0.-10,0.0,-3.0,0.90,93479.20,674.22
40995,2,0.0,10.0,0.68,0.8,0.-8,0.1,-3.-6,0.90,93480.24,674.89
41039,2,4.23,10.21,-4.-11,0.5,0.-10,0.0,-3.0,0.90,93477.6,674.51
41083,2,2.41,9.90,-1.-36,0.0,0.-12,0.-6,-3.-12,0.90,93474.85,674.61
41127,2,0.55,10.14,1.17,0.1,0.-8,0.-13,-3.-12,0.90,93483.42,674.90
41171,2,1.60,10.0,0.-20,0.7,0.-12,0.-16,-3.-6,0.90,93474.85,674.70
41215,2,0.70,9.77,0.-69,0.-2,0.-9,0.-21,-3.-6,0.90,93477.0,675.8
41259,2,-2.-49,9.98,0.-90,0.-4,0.-11,0.-14,-3.0,0.90,93480.24,674.41
41299,2,0.53,9.99,0.13,0.-5,0.-13,0.-5,-3.0,0.90,93476.2,675.8
41343,2,0.-1,9.91,1.54,0.0,0.-9,0.-6,-3.-6,0.91,93480.24,675.8
41387,2,0.77,10.17,0.-37,0.8,0.0,0.-4,-3.-6,0.91,93474.85,675.18
41431,2,0.78,10.1,0.-32,0.10,0.-11,0.-5,-3.-6,0.90,93484.53,674.89
41475,2,0.6,10.8,0.16,0.11,0.-3,0.-7,-3.-6,0.90,93474.85,675.37
41519,2,0.58,10.13,-1.-17,0.2,0.-4,0.-10,-3.0,0.90,93485.62,675.27
41563,2,0.42,9.98,0.22,0.2,0.-6,0.-6,-3.-6,0.90,93479.20,674.61
41607,2,0.61,10.3,0.9,0.5,0.-7,0.-6,-3.-6,0.91,93475.96,674.71
41647,2,0.52,10.2,0.-54,0.6,0.-9,0.-8,-3.-6,0.91,93478.10,674.52
41691,2,0.69,9.46,0.-11,0.4,0.-11,0.-6,-3.-6,0.90,93479.14,674.61
41735,2,1.41,10.6,0.40,0.6,0.-17,0.-3,-3.-12,0.90,93474.85,674.71
41779,2,0.36,9.96,0.-22,0.2,0.-6,0.-8,-3.-12,0.90,93474.85,674.70
41824,2,0.84,10.3,0.-42,0.4,0.-8,0.-7,-3.-12,0.90,93478.3,674.61
41868,2,0.44,9.98,0.1,0.4,0.-9,0.-9,-3.-6,0.90,93477.0,674.71
41912,2,0.30,10.5,0.-81,0.4,0.-10,0.-9,-3.-6,0.90,93476.93,674.32
41956,2,0.30,10.1,0.22,0.3,0.-8,0.-8,-3.0,0.90,93477.0,675.18
41996,2,0.45,10.4,0.-10,0.6,0.-7,0.-8,-3.-6,0.90,93477.0,674.13
42040,2,0.60,10.8,0.-38,0.6,0.-8,0.-8,-3.-6,0.90,93475.96,675.9
42084,2,0.1,9.96,0.-21,0.6,0.-9,0.-8,-3.0,0.90,93480.24,675.47
42128,2,0.10,10.0,0.-40,0.7,0.-7,0.-8,-3.0,0.90,93478.10,674.71
42172,2,0.-18,10.1,0.-31,0.11,0.-9,0.-2,-3.-6,0.90,93472.71,674.90
42216,2,0.55,10.11,0.89,0.13,0.-2,0.0,-3.0,0.89,93475.96,674.90
42260,2,1.9,10.7,-1.-11,0.16,0.-1,0.-2,-3.-6,0.90,93480.24,674.51
42304,2,0.-26,9.97,0.-90,0.12,0.-5,0.-1,-3.-6,0.91,93478.10,675.46
42344,2,0.47,9.93,-1.-73,0.8,0.-11,0.0,-3.-6,0.90,93477.0,674.79
42388,2,0.32,10.12,1.22,0.3,0.-6,0.0,-3.-12,0.90,93481.34,674.52
42432,2,1.32,10.4,0.60,0.12,0.-5,0.0,-3.-12,0.90,93474.85,674.90
42476,2,0.62,10.4,0.6,0.14,0.-8,0.-5,-3.0,0.90,93475.96,674.61
42520,2,1.44,10.9,0.21,0.19,0.-8,0.-7,-3.0,0.90,93477.0,675.28
42564,2,0.89,10.0,0.-88,0.20,0.-10,0.-10,-3.-6,0.91,93477.0,675.18
42608,2,0.68,9.96,0.-70,0.18,0.-9,0.-12,-3.-6,0.90,93479.14,674.80
42652,2,0.55,10.2,0.-53,0.20,0.-7,0.-12,-3.-6,0.89,93478.10,674.61
42692,2,0.37,9.94,-1.-35,0.19,0.-7,0.-13,-3.-12,0.90,93479.20,675.18
42736,2,0.18,9.95,-1.-70,0.15,0.-8,0.-11,-3.0,0.90,93478.10,674.80
42780,2,0.12,9.98,-1.-71,0.11,0.-7,0.-10,-3.-6,0.90,93479.14,675.75
42825,2,0.85,10.2,-1.-37,0.6,0.-9,0.-10,-3.-12,0.90,93479.20,674.71
42869,2,0.37,9.94,-1.-35,0.3,0.-9,0.-11,-3.-6,0.90,93480.24,674.89
42913,2,0.36,9.94,-1.-37,0.0,0.-7,0.-9,-3.-6,0.90,93477.0,675.18
42957,2,0.73,10.1,0.-91,0.-2,0.-9,0.-10,-2.-93,0.91,93477.6,675.46
42997,2,0.42,10.1,0.-52,0.0,0.-10,0.-11,-3.0,0.90,93478.10,674.80
43041,2,0.50,10.2,0.-50,0.0,0.-10,0.-11,-3.0,0.90,93483.48,674.89
43085,2,0.35,9.98,0.-8,0.3,0.-9,0.-11,-3.0,0.90,93478.10,675.18
43129,2,0.30,10.0,0.-94,0.4,0.-10,0.-11,-3.0,0.90,93475.96,675.9
43173,2,0.38,9.94,0.-84,0.4,0.-9,0.-11,-3.-6,0.90,93470.57,674.90
43217,2,0.27,9.97,0.-83,0.4,0.-9,0.-10,-3.-6,0.90,93473.75,675.18
43261,2,0.36,10.5,0.-99,0.2,0.-8,0.-10,-3.-6,0.90,93477.0,675.18
43305,2,0.19,10.2,0.-73,0.1,0.-8,0.-10,-3.-6,0.90,93475.96,675.18
43345,2,0.12,10.0,-1.-21,0.0,0.-10,0.-9,-3.-12,0.90,93478.10,674.70
43389,2,0.41,10.6,0.-17,0.-1,0.-5,0.-9,-3.-6,0.90,93471.61,675.18
43433,2,0.15,10.4,0.-71,0.1,0.-11,0.-9,-3.0,0.90,93471.67,674.52
43477,2,0.8,9.97,-1.-30,0.0,0.-11,0.-7,-3.-6,0.90,93475.96,674.90
43521,2,0.44,10.1,0.-47,0.-3,0.-9,0.-7,-3.-6,0.90,93481.28,674.61
43565,2,0.33,10.2,0.-11,0.0,0.-11,0.-8,-3.0,0.90,93481.28,675.9
43609,2,0.38,10.6,0.-46,0.0,0.-9,0.-8,-3.-6,0.90,93478.10,674.71
43653,2,0.66,10.7,0.-52,0.1,0.-10,0.-10,-3.0,0.90,93475.96,674.89
43693,2,1.55,10.5,-1.-9,0.-1,0.-9,0.-14,-3.-12,0.91,93475.96,674.90
43737,2,1.46,9.65,0.-32,0.-1,0.-7,0.-21,-2.-93,0.90,93475.96,675.37
43781,2,0.-11,9.70,0.-10,0.1,0.-16,0.-25,-3.-6,0.90,93478.10,674.61
43826,2,-3.-74,9.82,3.45,0.6,0.-10,0.-18,-3.0,0.90,93480.24,674.80
43870,2,-1.-70,9.97,-1.-48,0.17,0.-10,0.-2,-3.-6,0.90,93477.0,674.90
43914,2,1.1,10.5,-1.-9,0.8,0.-4,0.2,-3.-6,0.90,93477.0,675.28
43958,2,0.6,10.1,0.-70,0.5,0.-7,0.-1,-3.0,0.89,93475.89,674.52
44004,2,0.50,10.9,0.-56,0.4,0.-9,0.-2,-3.0,0.90,93483.42,674.61
44048,2,0.36,10.5,0.-48,0.4,0.-6,0.-3,-3.-6,0.90,93479.14,674.60
44092,2,0.22,10.3,0.-53,0.3,0.-7,0.-3,-3.0,0.90,93481.28,674.60
44136,2,0.36,10.4,0.-20,0.4,0.-8,0.-3,-3.-6,0.90,93481.28,675.37
44180,2,0.36,10.2,0.-88,0.4,0.-9,0.-5,-3.-6,0.89,93480.17,674.23
44224,2,0.43,10.1,0.-61,0.3,0.-10,0.-5,-3.-6,0.89,93479.14,674.99
44268,2,0.-17,10.5,0.-8,0.3,0.-9,0.-5,-3.0,0.90,93471.61,674.80
44312,2,0.34,10.5,0.-27,0.5,0.-10,0.-3,-2.-93,0.90,93477.6,674.22
44358,2,0.41,10.1,0.-57,0.7,0.-8,0.-4,-3.-6,0.90,93472.71,674.80
44402,2,0.37,9.99,0.-34,0.6,0.-9,0.-5,-3.-6,0.89,93482.38,674.71
44446,2,0.35,9.97,0.-17,0.8,0.-9,0.-5,-2.-93,0.90,93473.75,674.99
44490,2,0.48,10.0,0.-77,0.9,0.-6,0.-6,-3.0,0.89,93478.10,674.80
44534,2,0.7,10.2,0.-85,0.8,0.-10,0.-5,-3.-6,0.90,93477.0,674.61
44578,2,0.40,9.99,0.-38,0.7,0.-11,0.-4,-3.0,0.90,93481.22,674.61
44622,2,0.69,10.4,0.-2,0.9,0.-10,0.-4,-3.0,0.90,93479.8,674.99
44666,2,0.63,9.95,0.-76,0.11,0.-7,0.-7,-3.0,0.90,93479.8,675.85
44712,2,0.35,9.98,-1.-27,0.9,0.-5,0.-8,-3.-6,0.88,93471.55,674.61
44756,2,0.0,10.0,-1.-4,0.5,0.-9,0.-8,-3.-6,0.90,93475.89,674.52
44800,2,0.4,9.99,-1.-36,0.2,0.-9,0.-5,-3.-12,0.89,93480.17,674.80
44845,2,0.35,10.0,0.-20,0.-1,0.-10,0.-4,-3.0,0.90,93478.3,675.47
44889,2,0.61,10.6,0.-2,0.2,0.-10,0.-5,-3.-6,0.90,93470.51,675.9
44933,2,0.41,10.2,-1.-19,0.2,0.-5,0.-6,-3.0,0.89,93475.89,674.99
44977,2,0.40,10.2,0.-69,0.-1,0.-10,0.-6,-3.-6,0.90,93477.0,674.52
45021,2,0.77,10.0,0.25,0.0,0.-10,0.-8,-3.0,0.90,93477.0,674.71
45061,2,0.67,10.2,0.-51,0.3,0.-7,0.-9,-3.-12,0.90,93478.3,674.90
45105,2,0.-6,9.97,0.-40,0.4,0.-8,0.-10,-3.0,0.90,93477.0,674.90
45149,2,0.-28,10.1,0.-65,0.4,0.-6,0.-6,-3.0,0.90,93473.75,675.28
45193,2,0.-11,10.4,0.-9,0.3,0.-8,0.-2,-3.0,0.90,93476.93,674.71
45237,2,0.16,10.3,0.-35,0.5,0.-3,0.0,-3.-6,0.89,93482.38,675.9
45281,2,0.6,9.94,0.-84,0.5,0.-7,0.0,-3.-6,0.90,93475.89,675.18
45325,2,0.51,10.6,0.-92,0.3,0.-6,0.2,-3.-6,0.90,93480.17,674.71
45369,2,0.85,10.2,0.-60,0.0,0.-7,0.0,-3.-6,0.90,93479.14,675.28
45409,2,0.96,10.6,0.-31,0.0,0.-7,0.0,-3.-6,0.90,93471.61,675.37
45453,2,1.11,9.93,0.-93,0.0,0.-8,0.-3,-3.0,0.89,93480.24,674.90
45497,2,0.68,10.3,0.-3,0.-2,0.-9,0.-2,-3.-6,0.90,93475.89,674.99
45541,2,1.0,10.3,0.15,0.0,0.-7,0.-3,-3.-6,0.90,93477.6,674.70
45585,2,0.54,10.3,0.-61,0.1,0.-9,0.-4,-3.0,0.90,93480.24,674.90
45629,2,0.96,10.0,0.9,0.1,0.-10,0.-5,-3.-6,0.90,93484.53,675.18
45673,2,0.34,10.2,0.-15,0.3,0.-8,0.-5,-3.-6,0.90,93477.0,674.23
45717,2,1.7,10.4,0.37,0.5,0.-9,0.-4,-3.-12,0.90,93483.42,674.99
45763,2,0.93,9.99,0.-14,0.8,0.-6,0.-7,-3.0,0.90,93476.93,675.19
45807,2,1.15,10.3,0.-64,0.8,0.-9,0.-9,-3.-6,0.90,93478.10,674.61
45852,2,1.18,10.3,0.-18,0.7,0.-9,0.-11,-3.-6,0.90,93473.75,674.80
45896,2,1.3,10.3,0.-16,0.8,0.-8,0.-14,-3.0,0.90,93476.93,674.71
45940,2,0.82,10.4,0.-18,0.8,0.-8,0.-15,-3.0,0.90,93479.14,674.90
45984,2,0.72,10.3,0.-32,0.10,0.-8,0.-17,-2.-93,0.90,93472.71,674.71
46028,2,0.48,9.99,0.-48,0.10,0.-8,0.-18,-3.0,0.90,93484.53,675.18
46072,2,0.47,9.99,0.-38,0.10,0.-9,0.-18,-2.-93,0.90,93475.89,674.89
46112,2,0.33,10.1,0.-70,0.9,0.-6,0.-17,-3.0,0.90,93474.85,674.32
46156,2,0.18,10.1,0.-55,0.9,0.-8,0.-17,-3.-6,0.89,93473.75,674.99
46200,2,0.6,10.1,0.-45,0.8,0.-8,0.-15,-3.0,0.89,93482.38,674.80
46244,2,0.23,10.3,0.-76,0.8,0.-7,0.-13,-3.-6,0.90,93481.28,674.90
46288,2,0.-12,10.3,0.-85,0.5,0.-7,0.-12,-3.-6,0.90,93483.48,674.71
46332,2,0.-1,10.8,0.-62,0.5,0.-10,0.-8,-3.-12,0.90,93469.47,674.52
46376,2,0.20,10.2,0.-81,0.3,0.-10,0.-7,-3.-12,0.90,93480.17,674.61
46420,2,0.-11,10.2,0.-26,0.3,0.-10,0.-5,-3.-6,0.90,93478.10,675.18
46460,2,0.34,10.3,0.-47,0.4,0.-8,0.-3,-3.-6,0.90,93478.10,674.99
46504,2,0.67,10.0,-1.-6,0.3,0.-8,0.-4,-3.0,0.90,93481.34,674.32
46548,2,0.51,10.3,0.-65,0.0,0.-13,0.-4,-3.0,0.90,93478.3,675.9
46592,2,1.16,10.6,0.-13,0.0,0.-13,0.-6,-3.0,0.90,93474.92,674.99
46636,2,0.71,10.5,0.0,0.1,0.-11,0.-11,-3.-6,0.90,93475.96,674.32
46680,2,0.58,10.4,0.-5,0.4,0.-11,0.-13,-3.-6,0.90,93473.75,674.90
46724,2,0.52,10.4,0.-50,0.5,0.-8,0.-15,-3.-6,0.90,93477.0,675.28
46768,2,0.-40,10.2,0.-67,0.3,0.-7,0.-14,-3.0,0.90,93472.71,674.90
46808,2,0.-30,10.0,0.-22,0.2,0.-11,0.-10,-3.0,0.90,93483.42,674.13
46853,2,0.52,10.4,0.-19,0.4,0.-7,0.-9,-2.-93,0.90,93472.71,675.18
46897,2,0.41,9.99,0.-94,0.3,0.-8,0.-11,-2.-93,0.90,93482.38,674.80
46941,2,0.19,10.1,0.-60,0.0,0.-13,0.-11,-3.0,0.90,93478.10,674.51
46985,2,0.25,10.5,0.-20,0.0,0.-13,0.-12,-3.0,0.90,93474.85,675.47
47029,2,0.-11,10.11,0.6,0.2,0.-13,0.-12,-3.0,0.89,93474.79,675.27
47073,2,0.-41,9.99,0.-76,0.3,0.-4,0.-11,-2.-93,0.90,93480.24,674.42
47119,2,0.37,10.0,-1.-1,0.0,0.-15,0.-7,-3.-6,0.90,93472.71,674.42
47163,2,0.53,10.7,0.23,0.0,0.-13,0.-9,-3.0,0.90,93478.10,674.61
47207,2,0.16,10.0,0.0,0.2,0.-9,0.-12,-3.0,0.90,93476.93,674.90
47251,2,0.-25,9.96,0.-30,0.3,0.-9,0.-12,-3.-6,0.90,93474.85,674.61
47295,2,0.2,10.6,0.58,0.5,0.-9,0.-10,-3.0,0.90,93479.14,675.37
47339,2,0.-1,10.8,0.92,0.11,0.-6,0.-10,-2.-93,0.90,93478.10,674.52
47383,2,0.8,10.10,0.9,0.17,0.-1,0.-11,-2.-93,0.90,93480.24,674.90
47427,2,1.17,9.95,-3.-91,0.16,0.-3,0.-11,-3.-6,0.89,93471.61,674.80
47467,2,0.-58,9.77,-1.-10,0.2,0.-7,0.-10,-3.0,0.90,93475.89,674.89
47511,2,0.65,10.5,1.39,0.4,0.0,0.-15,-3.0,0.90,93482.38,674.90
47555,2,0.12,9.98,0.-47,0.11,0.-17,0.-17,-3.0,0.90,93479.14,674.61
47599,2,-1.-58,10.1,-1.-48,0.4,0.-4,0.-15,-3.0,0.90,93480.17,674.32
47643,2,0.-62,10.10,0.42,0.7,0.-18,0.-7,-3.0,0.90,93471.61,674.99
47687,2,0.-95,9.98,0.-80,0.8,0.-9,0.-4,-2.-93,0.90,93479.14,674.52
47731,2,0.-23,10.0,0.-83,0.7,0.-1,0.-1,-3.0,0.90,93481.28,674.61
47775,2,0.12,10.5,0.-34,0.5,0.-3,0.0,-3.0,0.90,93471.61,675.47
47815,2,1.1,10.9,0.-32,0.6,0.-5,0.-4,-3.-6,0.90,93477.0,674.61
47860,2,0.-63,10.4,0.-26,0.6,0.-10,0.-7,-3.0,0.90,93474.85,674.80
47904,2,0.-20,10.6,0.-43,0.6,0.0,0.-3,-3.-6,0.90,93476.93,674.71
47948,2,0.22,10.5,0.-6,0.7,0.-8,0.-3,-3.-6,0.89,93474.85,674.52
47992,2,0.37,10.3,0.-75,0.7,0.-2,0.-5,-3.-6,0.90,93481.28,675.28
48036,2,0.-22,10.6,0.-31,0.6,0.-12,0.-5,-3.-6,0.90,93478.3,674.80
48080,2,0.-52,10.3,0.0,0.7,0.-14,0.-3,-2.-93,0.90,93483.42,674.42
48124,2,0.-29,10.4,0.15,0.10,0.-2,0.-1,-3.0,0.90,93475.96,674.51
48164,2,0.-16,10.2,-1.-17,0.13,0.0,0.1,-3.0,0.89,93475.89,674.52
48208,2,0.97,10.5,0.-90,0.10,0.-5,0.0,-3.-6,0.89,93474.79,674.99
48252,2,0.78,10.7,0.-57,0.8,0.-6,0.-3,-3.-6,0.90,93481.28,674.71
48296,2,1.12,10.5,0.-61,0.6,0.-8,0.-7,-3.0,0.90,93477.0,675.18
48340,2,0.48,10.2,0.6,0.8,0.-14,0.-12,-3.-6,0.89,93474.79,674.71
48384,2,0.-45,9.98,-1.-16,0.7,0.-11,0.-10,-3.0,0.89,93475.89,674.99
48428,2,0.-24,9.98,0.-50,0.6,0.-7,0.-8,-3.-6,0.90,93480.17,675.9
48472,2,0.95,10.3,-1.-3,0.6,0.-4,0.-8,-3.0,0.90,93471.61,674.80
48512,2,0.43,9.98,-1.-73,0.2,0.-15,0.-11,-3.-6,0.90,93475.89,674.32
48556,2,0.-10,10.7,0.-21,0.0,0.-11,0.-12,-3.0,0.89,93475.96,674.80
48600,2,0.-36,9.99,0.-44,0.0,0.-10,0.-10,-3.0,0.89,93472.65,674.71
48644,2,0.-53,10.0,0.-41,0.0,0.-12,0.-6,-3.0,0.89,93480.17,674.61
48688,2,0.10,10.5,0.22,0.2,0.-9,0.-4,-3.0,0.89,93482.32,674.71
48732,2,0.18,10.4,0.-31,0.6,0.-6,0.-6,-3.0,0.90,93478.3,674.71
48776,2,0.-8,10.4,0.-44,0.7,0.-9,0.-5,-3.0,0.90,93480.17,674.52
48822,2,0.20,10.3,0.-68,0.4,0.-5,0.-5,-3.0,0.90,93481.28,674.80
48867,2,0.-3,10.17,0.40,0.6,0.-6,0.-5,-3.0,0.90,93478.3,674.61
48911,2,0.-35,10.7,-1.-20,0.8,0.-9,0.-3,-3.-6,0.90,93469.47,674.99
48955,2,0.-18,10.0,-1.-23,0.4,0.-10,0.0,-3.0,0.90,93473.69,674.42
48999,2,0.30,9.97,0.-93,0.1,0.-8,0.1,-3.0,0.90,93478.3,674.80
49043,2,1.19,10.12,0.-11,0.1,0.-11,0.0,-3.0,0.90,93477.0,674.61
49087,2,0.17,10.2,0.-88,0.2,0.-5,0.-5,-3.-6,0.90,93480.24,674.99
49131,2,0.18,9.99,0.-50,0.1,0.-9,0.-5,-3.0,0.90,93477.0,675.37
49177,2,0.-6,10.4,0.-58,0.1,0.-9,0.-4,-3.-6,0.89,93470.51,674.52
49221,2,0.21,10.4,0.-50,0.0,0.-10,0.-1,-3.0,0.90,93473.75,674.71
49265,2,0.30,10.4,0.-66,0.0,0.-10,0.-3,-3.0,0.90,93470.57,675.38
49309,2,0.57,10.2,0.-11,0.0,0.-8,0.-4,-3.0,0.89,93483.42,674.61
49353,2,0.55,10.3,0.-44,0.1,0.-10,0.-5,-3.0,0.90,93487.71,675.18
49397,2,0.-7,10.3,0.-48,0.0,0.-6,0.-4,-3.0,0.90,93471.61,674.71
49441,2,0.89,10.5,0.-16,0.0,0.-10,0.-3,-3.-6,0.90,93473.75,675.9
49485,2,0.20,10.0,0.-39,0.1,0.-8,0.-7,-2.-93,0.90,93482.32,675.28
49531,2,0.29,9.97,0.-28,0.1,0.-8,0.-5,-2.-93,0.90,93474.79,674.71
49575,2,0.28,10.13,0.-3,0.0,0.-7,0.-5,-3.0,0.90,93472.71,674.99
49619,2,0.30,10.2,0.13,0.3,0.-8,0.-4,-3.0,0.90,93471.61,675.18
49663,2,0.53,10.6,0.-32,0.4,0.-9,0.-4,-2.-93,0.90,93475.89,674.90
49707,2,0.36,10.8,0.13,0.5,0.-7,0.-5,-3.0,0.90,93480.17,674.61
49751,2,0.50,9.98,0.-50,0.6,0.-9,0.-5,-3.0,0.89,93472.71,674.32
49795,2,0.37,9.99,0.-68,0.3,0.-7,0.-5,-3.0,0.90,93479.8,675.28
49839,2,0.38,10.8,0.-14,0.3,0.-8,0.-4,-3.0,0.90,93475.89,674.70
49886,2,0.89,10.2,0.-42,0.4,0.-9,0.-5,-3.0,0.89,93479.8,674.80
49930,2,0.42,10.1,0.-12,0.3,0.-8,0.-7,-3.-6,0.90,93473.75,675.9
49974,2,0.29,10.4,0.-15,0.4,0.-9,0.-6,-3.0,0.90,93475.89,674.71
50018,2,0.37,10.3,0.-75,0.3,0.-8,0.-5,-3.0,0.89,93473.75,674.90
50062,2,0.76,10.5,0.-57,0.0,0.-8,0.-6,-3.0,0.90,93476.93,674.42
50106,2,1.59,10.6,0.49,0.1,0.-10,0.-9,-3.-6,0.89,93479.14,674.90
50160,2,0.86,10.10,1.2,0.8,0.-11,0.-16,-3.0,0.88,93473.69,674.81
50204,2,1.75,10.6,0.-68,0.13,0.-15,0.-19,-3.0,0.90,93477.98,674.71
50245,2,1.31,10.4,2.0,0.12,0.-11,0.-27,-3.-6,0.90,93471.61,675.28
50289,2,0.40,9.98,0.43,0.25,0.-15,0.-33,-3.-6,0.90,93477.0,674.71
50333,2,0.-45,9.93,-1.-35,0.25,0.0,0.-32,-3.0,0.90,93476.93,674.99
50377,2,0.-45,9.93,0.-77,0.23,0.-8,0.-27,-3.0,0.90,93487.71,674.71
50421,2,-1.-41,9.91,-1.-23,0.21,0.-6,0.-23,-2.-93,0.90,93473.75,674.32
50465,2,-1.-16,10.4,-1.-35,0.15,0.-8,0.-13,-3.0,0.89,93480.17,675.18
50509,2,0.27,10.5,0.-94,0.12,0.-1,0.-11,-3.-6,0.89,93468.43,674.80
50553,2,0.-63,10.2,-1.-11,0.9,0.-10,0.-11,-3.0,0.90,93471.67,674.32
50593,2,0.-42,9.97,0.-92,0.7,0.-6,0.-8,-3.0,0.90,93475.96,674.42
50637,2,0.2,10.2,0.-53,0.6,0.-12,0.-7,-3.0,0.90,93475.89,674.80
50681,2,0.-68,9.96,0.-84,0.6,0.-8,0.-6,-3.0,0.90,93471.61,675.18
50725,2,0.-24,9.99,-1.-2,0.5,0.-7,0.-3,-3.0,0.91,93474.79,674.80
50769,2,0.-3,10.2,0.-76,0.4,0.-8,0.-3,-3.0,0.90,93481.28,675.9
50813,2,0.-1,10.3,0.-46,0.5,0.-5,0.-4,-2.-93,0.90,93481.28,675.28
50857,2,0.25,10.2,0.-56,0.5,0.-5,0.-4,-3.0,0.90,93474.79,675.56
50902,2,0.20,10.6,0.-81,0.6,0.-10,0.-6,-2.-93,0.90,93479.20,674.32
50942,2,0.-13,10.6,0.-98,0.5,0.-8,0.-8,-3.0,0.90,93478.10,675.18
50986,2,0.-19,10.6,0.-94,0.4,0.-9,0.-7,-3.0,0.90,93471.61,674.80
51030,2,0.13,10.0,0.-45,0.3,0.-10,0.-7,-3.-6,0.89,93481.28,674.99
51074,2,0.4,10.3,0.-60,0.4,0.-9,0.-7,-3.0,0.90,93480.17,674.42
51118,2,0.-10,10.2,-1.-3,0.4,0.-9,0.-9,-3.0,0.90,93478.3,675.56
51162,2,0.-7,10.3,0.-77,0.3,0.-9,0.-9,-3.0,0.89,93472.71,675.9
51206,2,0.-17,10.5,0.-56,0.2,0.-9,0.-7,-3.0,0.89,93481.28,674.99
51250,2,0.-18,10.7,0.-73,0.4,0.-6,0.-7,-3.0,0.90,93478.10,675.18
51292,2,0.13,10.3,0.-35,0.4,0.-8,0.-7,-2.-93,0.89,93477.0,674.32
51336,2,0.0,10.6,0.-32,0.5,0.-8,0.-8,-2.-93,0.90,93473.75,674.80
51380,2,0.-14,10.1,0.-50,0.7,0.-8,0.-9,-3.0,0.90,93473.69,675.9
51424,2,0.-15,10.3,0.-27,0.9,0.-8,0.-8,-3.0,0.90,93474.92,674.71
51468,2,0.-12,10.3,0.-73,0.11,0.-8,0.-8,-3.0,0.90,93469.53,675.28
51512,2,0.-24,9.95,-1.-25,0.9,0.-5,0.-7,-3.0,0.90,93481.28,674.90
51556,2,0.35,10.4,0.-52,0.9,0.-7,0.-8,-3.0,0.90,93481.28,674.52
51600,2,0.7,10.0,0.-83,0.10,0.-9,0.-11,-2.-93,0.90,93477.0,674.80
51640,2,0.29,10.3,0.-49,0.10,0.-10,0.-11,-3.0,0.90,93478.10,675.47
51684,2,0.-17,10.4,-1.-6,0.11,0.-10,0.-14,-2.-93,0.90,93478.10,674.61
51728,2,0.-51,10.17,-1.-74,0.9,0.-10,0.-13,-3.0,0.90,93474.85,674.80
51772,2,0.-61,9.92,-1.-99,0.3,0.-8,0.-11,-3.0,0.90,93481.28,675.9
51816,2,0.5,9.99,-1.-29,0.-2,0.-10,0.-9,-3.-6,0.90,93478.10,675.27
51860,2,0.33,9.98,-1.-2,0.-4,0.-10,0.-11,-3.0,0.90,93474.79,675.37
51905,2,0.3,9.97,0.-91,0.-5,0.-15,0.-14,-3.0,0.89,93482.38,675.18
51945,2,0.4,10.19,0.-53,0.-5,0.-12,0.-16,-3.0,0.90,93481.28,674.80
51989,2,0.-46,10.1,0.-43,0.-3,0.-14,0.-15,-3.0,0.90,93480.24,674.60
52033,2,0.-40,10.5,0.-36,0.-1,0.-13,0.-15,-3.0,0.90,93471.61,674.61
52077,2,0.-76,9.94,0.-61,0.0,0.-17,0.-14,-2.-93,0.90,93473.82,674.71
52121,2,0.-99,9.92,0.-63,0.-1,0.-11,0.-10,-3.-6,0.90,93478.3,675.18
52165,2,0.-48,10.6,0.-25,0.-1,0.-10,0.-8,-3.0,0.90,93480.24,674.61
52209,2,0.-61,10.1,0.-22,0.0,0.-10,0.-8,-3.-6,0.89,93479.14,674.80
52253,2,0.-66,10.3,0.-33,0.2,0.-9,0.-7,-3.0,0.90,93474.85,674.80
52293,2,0.-48,10.1,0.-41,0.3,0.-9,0.-5,-2.-93,0.91,93482.38,675.18
52337,2,0.-68,10.2,0.-50,0.3,0.-6,0.-5,-3.0,0.90,93477.0,674.99
52381,2,0.-42,10.3,0.-45,0.3,0.-8,0.-5,-3.-6,0.90,93482.32,675.18
52425,2,0.-51,9.99,0.-28,0.3,0.-5,0.-4,-3.0,0.90,93480.24,674.90
52469,2,0.-42,9.99,0.-33,0.5,0.-7,0.-3,-3.0,0.90,93479.14,674.90
52513,2,0.-38,10.3,0.-60,0.4,0.-7,0.-3,-3.0,0.90,93475.89,674.70
52557,2,0.-23,9.99,0.-49,0.4,0.-4,0.-3,-3.0,0.90,93481.34,674.80
52601,2,0.-17,10.4,0.-51,0.5,0.-9,0.-4,-3.0,0.90,93475.96,675.47
52641,2,0.-27,10.3,0.-40,0.5,0.-7,0.-4,-3.0,0.89,93471.61,675.56
52685,2,0.-24,10.3,0.-41,0.5,0.-8,0.-5,-3.0,0.90,93479.14,674.32
52729,2,0.-22,9.99,0.-55,0.6,0.-8,0.-6,-3.0,0.90,93480.30,674.42
52773,2,0.-30,10.4,0.-74,0.5,0.-9,0.-6,-3.0,0.90,93472.71,675.9
52817,2,0.-19,10.7,0.-44,0.3,0.-10,0.-6,-3.0,0.90,93472.71,674.61
52861,2,0.-26,9.98,0.-36,0.3,0.-9,0.-7,-3.0,0.90,93483.42,674.80
52906,2,0.-32,10.1,0.-41,0.3,0.-8,0.-7,-3.0,0.90,93478.10,674.90
52951,2,0.-29,10.4,0.-40,0.3,0.-9,0.-6,-3.0,0.90,93478.3,674.42
52995,2,0.-17,10.7,0.-35,0.4,0.-9,0.-7,-3.-6,0.90,93470.57,674.71
53039,2,0.-34,10.4,0.-34,0.5,0.-9,0.-7,-3.-6,0.90,93477.0,674.42
53083,2,0.-33,10.3,0.-31,0.6,0.-7,0.-6,-3.0,0.90,93477.0,674.61
53127,2,0.-27,10.3,0.-44,0.5,0.-5,0.-5,-3.-6,0.89,93479.14,674.61
53171,2,0.-27,10.2,0.-50,0.5,0.-6,0.-5,-2.-93,0.90,93482.32,674.71
53215,2,0.-14,10.4,0.-68,0.5,0.-7,0.-6,-3.0,0.90,93481.28,674.51
53259,2,1.15,10.4,0.-24,0.5,0.-7,0.-7,-2.-93,0.90,93475.89,674.13
53305,2,0.-26,9.98,0.-48,0.5,0.-8,0.-7,-3.0,0.90,93470.57,675.18
53349,2,0.-18,10.4,0.-56,0.4,0.-8,0.-7,-3.0,0.90,93480.17,674.71
53393,2,0.-9,10.4,0.-28,0.4,0.-9,0.-8,-3.0,0.90,93472.65,675.9
53437,2,0.-13,10.4,0.-22,0.5,0.-9,0.-9,-3.0,0.90,93480.24,675.18
53481,2,0.-32,10.3,0.-35,0.6,0.-8,0.-10,-3.0,0.90,93480.24,674.99
53525,2,0.-29,10.3,0.-41,0.6,0.-8,0.-9,-3.0,0.90,93481.28,675.9
53569,2,0.-41,10.2,0.-62,0.6,0.-9,0.-8,-3.0,0.90,93480.17,674.90
53613,2,0.-38,10.3,0.-44,0.5,0.-8,0.-8,-3.0,0.90,93481.34,675.9
53659,2,0.-19,10.7,0.-36,0.5,0.-8,0.-7,-3.0,0.89,93475.96,674.71
53703,2,0.-19,10.6,0.-56,0.5,0.-8,0.-7,-3.-6,0.90,93477.0,674.61
53747,2,0.-24,10.4,0.-62,0.5,0.-8,0.-8,-3.0,0.90,93477.0,674.99
53791,2,0.-18,10.4,0.-54,0.4,0.-10,0.-9,-3.0,0.90,93477.0,674.61
53835,2,0.-26,10.0,0.-35,0.4,0.-10,0.-9,-3.0,0.90,93478.3,675.28
53879,2,0.-36,10.4,0.-37,0.3,0.-8,0.-9,-3.0,0.90,93477.0,674.71
53924,2,0.-39,9.99,0.-41,0.4,0.-10,0.-9,-3.0,0.90,93469.47,675.28
53968,2,0.-38,10.4,0.-46,0.5,0.-10,0.-9,-3.0,0.90,93473.82,675.8
54008,2,0.-38,9.98,0.-38,0.5,0.-8,0.-8,-3.0,0.90,93475.96,674.51
54052,2,0.-44,10.6,0.-45,0.5,0.-8,0.-7,-2.-93,0.89,93483.48,674.80
54096,2,0.-45,10.4,0.-48,0.4,0.-9,0.-7,-3.0,0.90,93478.3,674.90
54140,2,0.-32,10.3,0.-49,0.5,0.-8,0.-6,-2.-93,0.90,93474.85,675.28
54184,2,0.-25,10.2,0.-29,0.5,0.-9,0.-7,-2.-93,0.89,93481.28,674.80
54228,2,0.-37,10.0,0.-42,0.6,0.-8,0.-6,-3.0,0.90,93481.28,675.94
54272,2,0.-44,9.98,0.-74,0.5,0.-6,0.-5,-2.-93,0.90,93477.0,674.99
54316,2,0.-32,10.3,0.-68,0.4,0.-7,0.-5,-2.-93,0.90,93474.85,674.89
54356,2,0.-31,10.3,0.-36,0.4,0.-6,0.-4,-3.0,0.90,93486.67,674.89
54400,2,0.-25,10.5,0.-48,0.5,0.-6,0.-5,-3.0,0.91,93475.96,674.80
54444,2,0.-17,10.5,0.-68,0.5,0.-7,0.-6,-3.0,0.90,93477.0,674.80
54488,2,0.-12,10.7,0.-34,0.4,0.-8,0.-6,-3.0,0.90,93477.0,674.61
54532,2,0.-29,10.0,0.-45,0.4,0.-10,0.-7,-2.-93,0.90,93478.3,675.9
54576,2,0.-27,10.4,0.-42,0.4,0.-9,0.-6,-2.-93,0.90,93475.89,675.8
54620,2,0.-24,10.2,0.-44,0.5,0.-7,0.-6,-2.-93,0.90,93472.71,675.18
54664,2,0.-35,10.4,0.-51,0.5,0.-9,0.-7,-2.-93,0.90,93478.10,674.71
54704,2,0.-36,10.3,0.-46,0.4,0.-8,0.-5,-2.-93,0.90,93477.0,674.71
54748,2,0.-27,9.97,0.-33,0.5,0.-7,0.-5,-2.-93,0.90,93477.0,674.99
54792,2,0.-18,10.4,0.-52,0.5,0.-8,0.-6,-3.0,0.90,93481.34,675.18
54836,2,0.-21,10.3,0.-54,0.5,0.-7,0.-6,-2.-93,0.90,93479.14,674.71
54880,2,0.-23,10.5,0.-83,0.3,0.-6,0.-6,-2.-93,0.89,93482.32,675.9
54925,2,0.-29,10.3,0.-32,0.3,0.-13,0.-6,-2.-87,0.90,93470.57,675.47
54969,2,0.-30,10.2,0.-27,0.4,0.-9,0.-5,-3.0,0.90,93472.71,675.18
55015,2,0.-21,9.98,0.-28,0.4,0.-10,0.-6,-2.-93,0.90,93483.42,675.9
55059,2,0.-69,10.1,0.-84,0.5,0.-15,0.-4,-3.0,0.89,93475.89,674.80
55103,2,1.2,9.99,0.-58,0.3,0.-3,0.-3,-2.-87,0.90,93478.3,674.80
55147,2,0.-2,10.2,0.-65,0.2,0.-12,0.-6,-2.-93,0.90,93479.8,674.80
55191,2,0.-81,10.0,0.-28,0.2,0.-10,0.-5,-3.0,0.90,93477.0,674.80
55235,2,0.26,10.8,0.-50,0.2,0.-7,0.-2,-2.-93,0.90,93482.38,674.90
55279,2,0.3,10.2,0.-38,0.1,0.-10,0.-4,-2.-93,0.90,93469.41,674.52
55323,2,0.-25,10.1,0.-23,0.1,0.-9,0.-5,-3.0,0.90,93480.24,674.42
55369,2,0.16,10.5,0.-39,0.1,0.-9,0.-6,-2.-93,0.90,93467.33,675.9
55413,2,0.1,10.3,0.-8,0.2,0.-12,0.-8,-2.-93,0.90,93474.85,674.90
55457,2,0.-30,10.7,0.-38,0.2,0.-10,0.-8,-3.0,0.90,93479.14,674.89
55501,2,0.8,10.7,0.-22,0.2,0.-10,0.-7,-3.0,0.90,93474.85,675.28
55545,2,0.0,10.9,0.9,0.4,0.-10,0.-10,-2.-93,0.90,93480.17,675.9
55589,2,0.-27,9.98,0.-11,0.5,0.-9,0.-9,-2.-93,0.90,93474.85,674.90
55633,2,0.-44,10.6,0.-21,0.6,0.-9,0.-8,-3.0,0.90,93482.38,674.23
55677,2,0.-30,10.3,0.-49,0.6,0.-8,0.-6,-2.-87,0.90,93478.10,674.89
55717,2,0.-22,10.2,0.-59,0.5,0.-9,0.-6,-2.-93,0.90,93483.48,674.80
55761,2,0.-34,10.0,0.-39,0.3,0.-8,0.-4,-2.-93,0.90,93478.10,674.99
55805,2,0.-36,10.3,0.-43,0.2,0.-8,0.-3,-2.-93,0.90,93477.0,674.61
55849,2,0.19,10.5,0.-66,0.1,0.-10,0.-3,-3.0,0.90,93480.24,674.70
55893,2,0.6,10.6,0.-1,0.0,0.-9,0.-5,-3.0,0.90,93480.24,675.9
55938,2,0.11,10.5,0.4,0.3,0.-10,0.-5,-3.-6,0.90,93478.10,675.8
55982,2,0.-1,10.5,0.-23,0.3,0.-9,0.-6,-2.-93,0.90,93473.75,674.61
56026,2,0.-7,10.4,0.-3,0.4,0.-8,0.-6,-2.-93,0.91,93478.10,675.28
56066,2,0.-13,10.5,0.-12,0.5,0.-8,0.-6,-2.-93,0.90,93469.53,674.98
56110,2,0.-5,10.4,0.-13,0.5,0.-8,0.-5,-3.0,0.90,93472.78,674.51
56154,2,0.-20,10.9,0.-8,0.5,0.-7,0.-5,-3.0,0.90,93481.34,675.18
56198,2,0.-19,10.11,0.-33,0.7,0.-9,0.-5,-2.-93,0.90,93478.10,674.70
56242,2,0.5,10.5,0.-16,0.7,0.-9,0.-5,-2.-87,0.90,93478.10,674.13
56286,2,0.29,10.8,0.-18,0.7,0.-7,0.-6,-2.-93,0.90,93473.82,675.47
56330,2,0.42,10.6,0.-24,0.8,0.-6,0.-8,-3.0,0.90,93479.14,674.80
56374,2,0.-50,9.98,0.-41,0.8,0.-7,0.-8,-2.-93,0.90,93480.24,674.79
56414,2,0.-58,9.99,0.-37,0.8,0.-7,0.-4,-2.-87,0.91,93482.38,674.69
56458,2,0.-27,9.99,0.-78,0.6,0.-5,0.-2,-2.-93,0.90,93474.92,675.18
56502,2,0.16,10.6,0.-95,0.2,0.-8,0.-2,-3.0,0.90,93472.71,674.89
56546,2,0.34,10.4,0.-36,0.0,0.-9,0.-4,-2.-93,0.90,93472.71,674.13
56590,2,0.10,10.4,0.24,0.1,0.-8,0.-4,-2.-87,0.90,93485.62,674.89
56634,2,0.47,10.7,0.16,0.4,0.-8,0.-5,-2.-93,0.90,93471.67,675.8
56678,2,0.20,10.1,0.-49,0.4,0.-9,0.-7,-3.0,0.91,93474.92,674.42
56722,2,0.-9,10.6,0.-4,0.4,0.-8,0.-7,-2.-93,0.90,93479.26,674.70
56762,2,0.12,10.4,0.-17,0.5,0.-8,0.-6,-2.-93,0.91,93479.20,674.70
56806,2,0.6,10.5,0.-59,0.5,0.-9,0.-6,-2.-93,0.90,93478.10,675.18
56850,2,0.4,10.3,0.-8,0.4,0.-8,0.-6,-2.-93,0.90,93474.92,674.61
56894,2,0.31,10.4,0.-6,0.5,0.-9,0.-6,-2.-93,0.90,93477.0,675.9
56939,2,0.10,10.0,0.-35,0.5,0.-8,0.-7,-3.0,0.90,93475.96,674.42
56983,2,0.-18,10.9,0.13,0.6,0.-8,0.-7,-3.0,0.90,93480.24,675.75
57027,2,0.-3,10.2,0.-41,0.8,0.-9,0.-5,-2.-93,0.91,93478.10,674.23
57073,2,0.11,10.2,0.-61,0.6,0.-8,0.-5,-3.0,0.90,93474.92,674.89
57117,2,0.36,10.6,0.6,0.6,0.-8,0.-6,-2.-87,0.90,93480.17,674.71
57161,2,0.17,10.5,0.-44,0.7,0.-8,0.-7,-2.-93,0.90,93479.14,674.99
57205,2,0.-20,10.2,0.-60,0.5,0.-7,0.-6,-2.-93,0.89,93475.96,674.71
57249,2,0.-7,9.98,0.-34,0.4,0.-9,0.-4,-2.-93,0.90,93472.71,674.90
57293,2,0.46,10.7,0.-22,0.4,0.-9,0.-5,-2.-87,0.90,93474.85,675.56
57337,2,0.27,10.1,0.-40,0.4,0.-9,0.-7,-2.-93,0.90,93478.10,674.80
57381,2,0.16,10.2,0.-28,0.3,0.-9,0.-7,-2.-93,0.90,93477.0,674.41
57427,2,0.28,10.5,0.-13,0.4,0.-9,0.-8,-2.-93,0.90,93479.14,674.61
57471,2,0.26,10.6,0.-13,0.5,0.-8,0.-9,-2.-93,0.90,93470.57,674.80
57515,2,0.9,10.3,0.-20,0.5,0.-9,0.-9,-2.-93,0.90,93475.96,674.99
57559,2,0.-2,10.5,0.-20,0.6,0.-8,0.-9,-3.0,0.90,93477.6,675.18
57603,2,0.-14,10.7,0.-40,0.6,0.-8,0.-7,-3.0,0.91,93480.24,674.13
57647,2,0.-8,10.4,-1.-6,0.5,0.-8,0.-7,-3.0,0.90,93475.96,674.99
57691,2,0.28,9.97,0.-96,0.-2,0.-9,0.-7,-2.-93,0.90,93477.0,675.28
57735,2,0.18,9.99,0.-24,0.-5,0.-9,0.-8,-3.0,0.90,93473.82,674.71
57781,2,0.-35,10.4,0.-18,0.-4,0.-11,0.-7,-2.-93,0.90,93480.24,675.28
57825,2,0.-29,10.4,0.-12,0.-4,0.-11,0.-4,-3.0,0.90,93468.43,674.42
57869,2,0.32,10.4,0.-3,0.-4,0.-8,0.-3,-2.-93,0.90,93480.24,674.70
57913,2,0.54,10.8,0.0,0.-4,0.-7,0.-5,-2.-93,0.90,93477.6,674.99
57958,2,0.-15,10.6,0.0,0.-3,0.-10,0.-5,-2.-93,0.90,93475.96,674.80
58002,2,1.19,10.5,0.91,0.-2,0.-12,0.-5,-3.0,0.90,93471.61,675.76
58046,2,1.9,10.6,1.23,0.2,0.-8,0.-11,-2.-87,0.90,93481.28,675.18
58090,2,0.-8,10.3,0.91,0.10,0.-7,0.-14,-2.-93,0.90,93477.6,675.18
58130,2,0.-40,10.3,0.18,0.13,0.-8,0.-11,-2.-87,0.90,93478.10,675.46
58174,2,0.-57,9.96,0.-18,0.14,0.-8,0.-8,-2.-87,0.90,93481.28,675.27
58218,2,0.-4,10.4,0.19,0.13,0.-7,0.-5,-2.-93,0.90,93476.2,675.37
58262,2,0.11,10.7,0.-18,0.14,0.-6,0.-4,-2.-93,0.90,93472.78,674.32
58306,2,0.-23,10.2,0.-49,0.14,0.-6,0.-2,-2.-87,0.90,93479.14,674.90
58350,2,0.27,9.97,-1.-17,0.11,0.-7,0.-2,-2.-93,0.90,93475.96,674.90
58394,2,0.39,10.4,0.-99,0.5,0.-8,0.-3,-2.-93,0.91,93478.10,675.18
58438,2,0.-15,10.7,0.-36,0.0,0.-7,0.-2,-2.-87,0.90,93474.92,674.98
58478,2,0.10,10.12,1.66,0.3,0.-8,0.-1,-2.-87,0.90,93477.6,674.41
58522,2,0.16,10.6,0.77,0.12,0.-8,0.0,-2.-87,0.91,93474.92,674.60
58566,2,0.71,10.1,0.-77,0.14,0.-8,0.-2,-2.-87,0.90,93477.6,675.27
58610,2,0.-9,10.3,0.-56,0.11,0.-6,0.-3,-2.-93,0.91,93472.71,674.42
58654,2,0.-20,10.1,0.-59,0.10,0.-7,0.0,-2.-93,0.90,93478.10,674.70
58698,2,0.-19,10.3,0.-53,0.9,0.-7,0.2,-2.-93,0.90,93477.0,674.90
58742,2,0.78,10.3,0.-38,0.7,0.-8,0.4,-2.-87,0.91,93477.6,675.17
58788,2,0.93,10.6,0.-23,0.7,0.-6,0.1,-2.-93,0.90,93475.96,675.27
58832,2,0.55,10.1,0.-45,0.7,0.-8,0.0,-2.-87,0.90,93480.24,674.89
58876,2,0.33,9.97,0.-66,0.6,0.-7,0.0,-2.-93,0.90,93479.20,674.61
58920,2,0.57,10.0,0.-74,0.3,0.-8,0.2,-2.-93,0.90,93479.20,675.18
58965,2,1.53,10.6,0.-55,0.1,0.-6,0.0,-2.-93,0.90,93474.92,675.9
59009,2,0.65,10.1,0.-36,0.1,0.-9,0.-2,-2.-93,0.90,93477.0,674.99
59053,2,0.81,10.0,0.-22,0.0,0.-9,0.-5,-2.-93,0.90,93478.16,675.8
59097,2,0.48,10.1,0.-26,0.0,0.-9,0.-5,-3.0,0.91,93475.96,674.70
59140,2,0.84,10.1,0.-7,0.0,0.-8,0.-5,-2.-93,0.90,93472.78,675.8
59184,2,1.59,10.3,0.98,0.2,0.-7,0.-5,-2.-93,0.91,93481.28,675.8
59228,2,0.48,10.3,0.19,0.11,0.-10,0.-11,-2.-87,0.91,93472.71,674.90
59272,2,0.9,9.99,0.-39,0.12,0.-8,0.-8,-2.-93,0.90,93480.24,675.18
59316,2,1.10,10.3,0.-12,0.12,0.-9,0.-6,-2.-93,0.90,93473.82,675.56
59360,2,0.1,10.2,0.-61,0.12,0.-8,0.-8,-2.-93,0.90,93475.96,674.99
59404,2,0.-10,10.1,0.-73,0.10,0.-8,0.-4,-2.-93,0.91,93472.78,674.98
59448,2,1.38,10.2,0.-90,0.7,0.-8,0.-2,-2.-87,0.91,93481.34,674.89
59488,2,0.66,10.0,0.-73,0.4,0.-7,0.-4,-2.-87,0.91,93478.16,675.8
59532,2,0.47,10.0,0.-35,0.3,0.-8,0.-4,-2.-93,0.91,93481.34,674.89
59576,2,1.56,10.4,0.33,0.5,0.-8,0.-6,-2.-87,0.91,93480.24,674.70
59620,2,0.76,9.98,0.-40,0.8,0.-9,0.-8,-2.-93,0.90,93477.6,674.99
59664,2,1.1,9.98,0.-55,0.7,0.-9,0.-9,-2.-87,0.91,93472.78,674.51
59708,2,0.34,10.3,0.-71,0.6,0.-9,0.-9,-2.-93,0.91,93478.10,674.31
59752,2,0.30,9.98,0.-85,0.4,0.-8,0.-7,-2.-93,0.90,93473.82,674.99
59796,2,0.96,9.99,0.-22,0.2,0.-7,0.-8,-3.0,0.91,93476.2,673.94
59836,2,0.59,10.0,0.-11,0.2,0.-8,0.-7,-2.-93,0.90,93473.82,674.60
59880,2,1.4,10.1,0.6,0.5,0.-8,0.-8,-2.-87,0.90,93478.16,674.80
59924,2,0.41,9.99,0.-37,0.6,0.-9,0.-8,-2.-87,0.90,93479.20,674.42
59969,2,0.59,9.98,0.-85,0.5,0.-8,0.-7,-2.-87,0.91,93479.20,675.18
60013,2,0.66,10.4,0.-11,0.4,0.-8,0.-6,-2.-81,0.90,93482.44,675.9
60057,2,1.15,10.3,0.-12,0.5,0.-8,0.-7,-2.-87,0.90,93478.16,674.41
60101,2,0.46,10.2,0.-41,0.6,0.-9,0.-9,-2.-93,0.91,93475.96,674.71
60145,2,0.14,9.99,0.-64,0.6,0.-8,0.-6,-2.-93,0.90,93472.78,674.70
60194,2,1.19,10.2,0.-51,0.3,0.-7,0.-5,-2.-87,0.90,93473.82,674.70
60238,2,0.83,10.4,0.-20,0.3,0.-8,0.-7,-2.-87,0.90,93473.75,674.79
60282,2,0.38,10.0,0.-40,0.4,0.-9,0.-6,-2.-87,0.90,93477.6,675.47
60326,2,0.99,10.0,0.-47,0.3,0.-8,0.-6,-2.-93,0.90,93472.71,675.18
60370,2,0.63,10.1,0.-12,0.4,0.-9,0.-7,-2.-93,0.90,93475.96,674.51
60414,2,0.90,10.1,0.-86,0.3,0.-9,0.-6,-2.-93,0.90,93472.78,674.89
60458,2,0.49,9.99,0.-3,0.0,0.-7,0.-6,-2.-93,0.90,93475.96,674.70
60505,2,0.78,10.4,0.9,0.2,0.-9,0.-6,-2.-93,0.90,93479.20,674.99
60549,2,0.78,10.1,0.0,0.5,0.-9,0.-6,-2.-93,0.90,93475.89,675.27
60593,2,0.88,10.0,0.-23,0.6,0.-9,0.-6,-2.-93,0.90,93477.6,674.99
60637,2,1.3,9.98,0.-55,0.5,0.-8,0.-8,-2.-93,0.90,93471.61,674.70
60681,2,0.66,10.3,0.-25,0.4,0.-7,0.-8,-2.-93,0.90,93480.24,675.18
60725,2,0.70,10.0,0.-19,0.5,0.-8,0.-7,-3.0,0.90,93479.20,674.80
60769,2,0.96,10.3,0.-70,0.5,0.-9,0.-8,-2.-93,0.90,93480.24,674.70
60813,2,0.68,9.99,0.-5,0.4,0.-8,0.-8,-2.-87,0.90,93483.48,674.98
60859,2,0.68,9.99,0.-35,0.5,0.-9,0.-7,-2.-93,0.91,93477.6,675.8
60903,2,1.7,10.3,0.-56,0.3,0.-8,0.-8,-2.-87,0.90,93482.38,674.22
60947,2,0.66,10.4,0.-6,0.3,0.-9,0.-10,-2.-93,0.90,93479.20,674.99
60992,2,0.79,10.4,0.-64,0.3,0.-9,0.-9,-2.-93,0.91,93481.34,674.70
61036,2,0.86,10.2,0.0,0.1,0.-7,0.-10,-2.-93,0.91,93472.71,674.61
61080,2,0.55,10.5,0.28,0.3,0.-8,0.-9,-2.-93,0.90,93478.10,674.51
61124,2,0.20,10.0,0.-20,0.6,0.-9,0.-7,-2.-93,0.91,93478.10,675.8
61168,2,0.37,10.1,0.-19,0.7,0.-8,0.-5,-2.-93,0.90,93479.20,674.99
61214,2,0.82,10.1,0.-47,0.6,0.-8,0.-2,-2.-87,0.90,93483.54,675.28
61258,2,1.31,10.4,0.-45,0.4,0.-7,0.-4,-2.-87,0.90,93475.96,675.27
61302,2,0.89,10.2,0.-22,0.5,0.-9,0.-7,-2.-93,0.90,93475.96,674.89
61346,2,0.57,9.98,0.-45,0.5,0.-9,0.-7,-2.-93,0.90,93472.71,674.61
61390,2,0.71,10.3,0.-4,0.4,0.-8,0.-6,-2.-93,0.91,93475.96,674.70
61434,2,0.62,10.2,0.-15,0.5,0.-8,0.-5,-2.-87,0.90,93470.57,675.17
61478,2,0.82,10.3,0.-37,0.4,0.-8,0.-3,-2.-87,0.91,93477.6,674.80
61522,2,1.19,10.3,0.-15,0.4,0.-8,0.-5,-2.-93,0.91,93477.6,674.31
61562,2,0.72,10.0,0.-14,0.5,0.-8,0.-6,-2.-93,0.91,93470.57,675.27
61606,2,1.25,10.3,0.-43,0.5,0.-8,0.-6,-2.-87,0.91,93479.20,675.17
61650,2,0.92,10.3,0.-20,0.5,0.-9,0.-8,-2.-87,0.91,93478.10,674.80
61694,2,0.69,9.99,0.-11,0.6,0.-9,0.-8,-2.-93,0.90,93472.78,674.61
61738,2,0.46,10.0,0.-20,0.6,0.-8,0.-7,-2.-93,0.90,93477.6,674.80
61782,2,0.42,10.1,0.-36,0.6,0.-8,0.-5,-3.0,0.91,93477.6,674.99
61826,2,1.11,10.2,0.-46,0.5,0.-8,0.-4,-2.-93,0.91,93478.10,675.56
61870,2,0.93,9.97,0.-2,0.5,0.-8,0.-6,-2.-93,0.91,93482.38,674.89
61910,2,0.80,9.82,0.-41,0.6,0.-8,0.-5,-2.-93,0.91,93479.20,675.18
61954,2,1.6,10.4,0.-60,0.4,0.-8,0.-6,-2.-93,0.91,93479.20,675.27
61999,2,0.89,10.4,0.-10,0.4,0.-9,0.-8,-2.-87,0.91,93474.92,675.8
62043,2,0.59,10.2,0.-42,0.4,0.-9,0.-7,-2.-87,0.91,93478.10,675.18
62087,2,0.64,10.1,0.-38,0.3,0.-8,0.-5,-2.-87,0.90,93478.10,675.18
62131,2,0.89,10.3,0.-6,0.3,0.-7,0.-5,-2.-87,0.90,93473.82,674.80
62175,2,1.14,10.4,0.-17,0.5,0.-8,0.-6,-2.-87,0.90,93485.62,674.60
62219,2,0.88,10.4,0.-18,0.6,0.-9,0.-8,-2.-87,0.91,93481.34,674.60
62261,2,0.81,9.99,0.-50,0.6,0.-9,0.-7,-2.-81,0.91,93477.6,674.70
62305,2,1.6,10.2,0.-38,0.4,0.-8,0.-7,-2.-93,0.90,93477.6,674.70
62349,2,0.86,10.1,0.0,0.4,0.-8,0.-8,-2.-93,0.90,93480.30,674.70
62393,2,0.49,10.4,0.-42,0.5,0.-8,0.-7,-2.-87,0.90,93478.10,674.32
62437,2,0.64,10.3,0.-57,0.4,0.-8,0.-5,-2.-93,0.90,93479.20,675.8
62481,2,0.80,10.0,0.-29,0.3,0.-8,0.-5,-3.0,0.90,93475.96,675.8
62525,2,0.85,10.1,0.-6,0.3,0.-8,0.-4,-2.-87,0.91,93471.67,674.70
62569,2,1.8,9.98,0.-47,0.3,0.-8,0.-4,-2.-93,0.91,93474.92,674.79
62609,2,1.16,10.2,0.-29,0.2,0.-8,0.-6,-2.-93,0.90,93472.78,675.56
62653,2,1.10,10.2,0.0,0.2,0.-8,0.-7,-2.-93,0.90,93475.96,674.99
62697,2,0.97,9.98,0.-18,0.3,0.-8,0.-7,-2.-93,0.91,93473.88,675.27
62741,2,1.40,10.96,0.14,0.1,0.40,0.-8,-2.-87,0.90,93479.20,675.75
62785,2,0.15,3.64,3.22,0.9,0.-57,0.-2,-2.-93,0.91,93473.75,675.28
62829,2,2.58,9.64,-2.-58,0.20,0.-40,0.7,-2.-93,0.90,93477.12,674.70
62873,2,1.11,10.2,-1.-48,0.11,0.-9,0.6,-2.-93,0.91,93474.92,674.89
62919,2,2.1,10.28,0.-18,0.9,0.-17,0.0,-2.-93,0.91,93477.6,675.56
62963,2,1.45,10.0,0.-30,0.7,0.-8,0.-5,-2.-93,0.90,93475.96,675.46
63008,2,1.32,10.7,0.-16,0.7,0.-7,0.-7,-2.-93,0.90,93477.0,674.32
63052,2,1.13,9.96,0.-34,0.6,0.-7,0.-8,-2.-93,0.90,93483.48,674.51
63096,2,1.41,10.3,0.-60,0.5,0.-9,0.-9,-2.-93,0.90,93474.92,674.99
63140,2,1.33,9.98,0.-35,0.4,0.-8,0.-11,-2.-93,0.91,93481.34,674.89
63184,2,0.74,10.0,0.23,0.6,0.-9,0.-11,-2.-93,0.91,93476.2,675.27
63228,2,0.40,9.98,0.-34,0.8,0.-4,0.-9,-2.-93,0.91,93477.6,674.89
63268,2,0.95,9.96,0.-96,0.7,0.-6,0.-6,-2.-87,0.90,93477.6,674.89
63312,2,1.15,10.1,0.-34,0.4,0.-7,0.-6,-3.0,0.92,93471.74,674.70
63356,2,1.5,9.98,0.-27,0.5,0.-8,0.-6,-2.-87,0.91,93476.2,674.70
63400,2,1.39,9.98,0.-20,0.5,0.-8,0.-7,-2.-93,0.91,93479.26,674.70
63444,2,0.83,9.99,0.-50,0.7,0.-9,0.-8,-2.-93,0.91,93473.82,674.79
63488,2,1.3,9.99,0.-92,0.5,0.-9,0.-8,-2.-87,0.90,93474.85,675.27
63532,2,0.87,10.2,0.-38,0.4,0.-9,0.-8,-2.-93,0.90,93482.44,675.37
63576,2,1.19,9.96,0.-7,0.5,0.-8,0.-7,-2.-93,0.91,93473.82,675.17
63616,2,0.84,10.0,0.-23,0.6,0.-9,0.-8,-2.-87,0.91,93471.74,674.89
63660,2,1.4,9.96,0.-74,0.6,0.-8,0.-6,-2.-87,0.91,93480.30,674.79
63704,2,1.29,9.92,0.-55,0.4,0.-8,0.-7,-2.-87,0.90,93475.96,674.89
63748,2,1.15,9.99,0.-28,0.4,0.-8,0.-9,-2.-93,0.91,93478.16,674.99
63792,2,0.75,10.1,0.-35,0.5,0.-9,0.-9,-2.-87,0.91,93478.16,675.8
63836,2,1.8,9.99,0.-72,0.5,0.-9,0.-8,-2.-93,0.90,93480.30,675.17
63880,2,1.7,9.96,0.-2,0.4,0.-7,0.-9,-2.-93,0.90,93467.39,674.98
63924,2,0.72,10.0,0.-2,0.6,0.-8,0.-8,-2.-87,0.92,93479.26,674.98
63964,2,1.7,10.0,0.-77,0.7,0.-9,0.-8,-2.-87,0.92,93481.40,675.27
64009,2,0.83,10.0,0.-33,0.6,0.-8,0.-7,-2.-87,0.91,93474.92,675.17
64053,2,1.23,9.97,0.-80,0.6,0.-9,0.-8,-2.-87,0.90,93473.82,674.89
64097,2,1.14,9.99,0.-70,0.1,0.-7,0.-9,-2.-93,0.91,93474.92,675.17
64141,2,1.23,10.0,0.-13,0.2,0.-9,0.-10,-2.-93,0.91,93475.96,675.28
64185,2,0.82,10.4,0.-42,0.3,0.-9,0.-11,-2.-93,0.91,93474.92,674.60
64229,2,0.65,10.6,0.-22,0.3,0.-9,0.-10,-2.-93,0.90,93479.26,674.32
64273,2,0.65,10.3,0.0,0.5,0.-8,0.-9,-2.-87,0.90,93477.6,675.17
64313,2,0.16,10.1,0.-28,0.6,0.-8,0.-6,-2.-93,0.91,93474.92,674.98
64357,2,1.21,9.98,0.-56,0.6,0.-7,0.-4,-2.-93,0.91,93476.2,674.98
64401,2,1.22,10.0,0.-72,0.5,0.-8,0.-6,-2.-93,0.91,93481.40,674.51
64445,2,1.2,10.1,0.-45,0.4,0.-8,0.-7,-2.-93,0.91,93479.20,674.79
64489,2,0.89,10.2,0.-8,0.4,0.-9,0.-8,-2.-93,0.91,93473.88,674.98
64533,2,0.82,10.0,0.-24,0.6,0.-9,0.-6,-2.-93,0.91,93482.44,674.70
64577,2,1.9,9.98,0.-22,0.7,0.-8,0.-5,-3.0,0.90,93477.6,674.98
64623,2,1.0,10.2,0.-47,0.8,0.-8,0.-6,-2.-93,0.91,93479.20,675.36
64667,2,0.96,9.95,0.-82,0.7,0.-9,0.-7,-2.-87,0.90,93477.6,674.89
64711,2,0.89,9.99,0.-41,0.6,0.-8,0.-6,-2.-93,0.90,93478.16,674.79
64755,2,1.10,9.94,0.-60,0.5,0.-8,0.-6,-2.-93,0.91,93478.16,674.79
64799,2,1.12,10.5,0.-29,0.5,0.-8,0.-6,-2.-87,0.91,93474.92,675.8
64843,2,1.5,9.99,0.-32,0.6,0.-9,0.-8,-2.-93,0.90,93474.98,675.27
64887,2,0.76,10.4,0.-57,0.6,0.-8,0.-8,-2.-93,0.92,93476.2,674.51
64931,2,1.6,9.97,0.-40,0.5,0.-8,0.-7,-3.0,0.91,93479.26,674.50
64977,2,0.87,10.2,0.-38,0.5,0.-7,0.-6,-2.-93,0.91,93474.92,674.70
65022,2,0.90,10.3,0.-71,0.5,0.-7,0.-7,-2.-93,0.91,93478.16,675.46
65066,2,0.83,10.2,0.-19,0.4,0.-7,0.-6,-2.-87,0.91,93472.78,675.27
65110,2,0.97,9.93,0.-65,0.6,0.-8,0.-6,-2.-87,0.91,93471.67,674.98
65154,2,1.20,9.96,0.-81,0.4,0.-8,0.-5,-3.0,0.92,93480.30,674.69
65198,2,1.8,9.98,0.-35,0.3,0.-10,0.-7,-2.-93,0.90,93474.98,674.98
65242,2,1.6,9.98,0.-45,0.4,0.-9,0.-7,-2.-93,0.91,93479.26,674.31
65286,2,1.13,9.95,0.-45,0.3,0.-9,0.-8,-2.-93,0.91,93470.70,674.69
65326,2,1.0,10.3,0.-41,0.3,0.-9,0.-8,-2.-87,0.91,93474.92,674.50
65370,2,0.96,10.0,0.-32,0.3,0.-9,0.-9,-2.-87,0.91,93477.6,674.89
65414,2,0.88,9.94,0.-21,0.3,0.-9,0.-9,-2.-87,0.90,93479.20,675.8
65458,2,0.73,10.3,0.-19,0.4,0.-7,0.-7,-2.-93,0.91,93470.64,674.98
65502,2,0.99,9.96,0.-29,0.5,0.-7,0.-6,-2.-93,0.91,93476.2,674.60
65546,2,0.98,9.99,0.-55,0.6,0.-8,0.-6,-2.-93,0.91,93477.12,674.89
65590,2,1.0,9.99,0.-34,0.6,0.-8,0.-7,-2.-93,0.90,93478.16,674.89
65634,2,0.99,9.99,0.-57,0.6,0.-8,0.-6,-2.-93,0.91,93476.2,674.98
65674,2,1.19,9.96,0.-53,0.5,0.-9,0.-7,-3.-6,0.91,93478.22,674.79
65718,2,1.26,9.98,0.-19,0.5,0.-9,0.-9,-2.-93,0.91,93476.2,674.79
65762,2,0.87,10.0,0.-62,0.5,0.-9,0.-9,-2.-93,0.91,93472.78,675.8
65806,2,0.83,9.98,0.-54,0.3,0.-8,0.-8,-2.-87,0.91,93471.74,674.60
65850,2,0.85,10.0,0.-24,0.5,0.-9,0.-7,-2.-87,0.90,93476.2,674.79
65894,2,1.15,9.97,0.-52,0.5,0.-9,0.-8,-2.-93,0.90,93471.74,674.60
65938,2,0.93,9.97,0.-33,0.4,0.-9,0.-8,-2.-93,0.90,93482.38,674.69
65982,2,0.87,9.99,0.-34,0.4,0.-8,0.-8,-2.-87,0.91,93481.40,675.8
66023,2,0.88,10.2,0.-14,0.5,0.-9,0.-8,-2.-93,0.91,93474.98,675.17
66067,2,0.93,9.99,0.-37,0.6,0.-8,0.-7,-2.-87,0.92,93479.26,674.98
66111,2,0.81,10.0,0.-61,0.5,0.-8,0.-6,-2.-93,0.92,93473.88,674.98
66155,2,1.19,10.0,0.-66,0.4,0.-7,0.-6,-2.-93,0.91,93480.30,674.89
66199,2,1.36,9.97,0.-45,0.4,0.-9,0.-8,-2.-87,0.91,93478.10,675.17
66243,2,0.94,9.96,0.-56,0.4,0.-9,0.-10,-2.-93,0.91,93478.16,674.69
66287,2,0.66,9.98,0.-20,0.3,0.-9,0.-8,-2.-87,0.91,93474.92,674.79
66331,2,0.69,9.98,0.-22,0.4,0.-7,0.-6,-2.-93,0.91,93472.84,675.17
66371,2,0.78,10.3,0.-27,0.5,0.-8,0.-6,-2.-93,0.92,93472.84,674.79
66415,2,1.33,10.0,0.26,0.7,0.-7,0.-5,-2.-87,0.92,93474.98,675.17
66459,2,1.36,10.0,0.-7,0.10,0.-10,0.-8,-2.-87,0.92,93476.2,674.89
66503,2,0.57,10.2,-1.-7,0.11,0.-10,0.-9,-2.-93,0.91,93477.12,674.69
66547,2,0.69,9.96,-1.-4,0.6,0.-7,0.-5,-2.-87,0.90,93472.78,674.60
66591,2,1.30,9.98,0.-59,0.4,0.-7,0.-6,-2.-93,0.91,93473.88,675.27
66635,2,0.56,9.99,0.-44,0.2,0.-8,0.-6,-2.-81,0.91,93476.2,675.17
66681,2,0.92,9.99,0.-29,0.3,0.-9,0.-4,-2.-81,0.90,93479.26,674.89
66725,2,1.68,10.0,0.-3,0.4,0.-9,0.-6,-2.-93,0.90,93478.16,674.98
66769,2,0.92,10.1,0.-61,0.5,0.-10,0.-8,-2.-87,0.91,93480.36,674.98
66813,2,0.73,10.0,0.-21,0.4,0.-8,0.-6,-2.-87,0.91,93479.26,675.17
66857,2,1.17,9.95,0.-16,0.5,0.-8,0.-6,-2.-87,0.91,93472.78,675.8
66901,2,1.29,10.0,0.-75,0.4,0.-8,0.-7,-2.-87,0.91,93479.26,674.79
66945,2,1.33,10.2,0.29,0.5,0.-8,0.-10,-2.-87,0.92,93479.20,675.18
66989,2,0.79,9.99,0.-43,0.9,0.-9,0.-10,-2.-87,0.90,93476.2,675.36
67030,2,0.65,9.94,0.-93,0.8,0.-8,0.-9,-2.-87,0.91,93476.2,675.8
67074,2,1.36,10.2,0.-95,0.5,0.-8,0.-8,-2.-87,0.92,93470.64,675.27
67118,2,0.97,10.0,0.-28,0.4,0.-11,0.-10,-2.-87,0.92,93477.12,674.98
67162,2,0.83,9.96,0.-62,0.4,0.-9,0.-9,-2.-87,0.91,93477.12,674.69
67206,2,1.4,9.97,0.-56,0.3,0.-6,0.-9,-2.-87,0.92,93471.80,674.89
67250,2,0.88,9.99,0.17,0.5,0.-8,0.-10,-2.-87,0.92,93480.30,674.69
67294,2,0.86,10.0,0.-44,0.7,0.-10,0.-10,-2.-87,0.92,93481.40,675.27
67338,2,0.74,10.0,0.-40,0.7,0.-10,0.-8,-2.-87,0.91,93479.26,674.98
67378,2,1.8,10.3,0.-45,0.7,0.-8,0.-8,-2.-81,0.91,93473.88,674.60
67422,2,0.99,9.98,0.-33,0.7,0.-7,0.-9,-2.-93,0.92,93482.50,674.60
67466,2,0.69,9.93,0.-71,0.7,0.-8,0.-9,-2.-87,0.92,93479.26,675.65
67510,2,0.92,9.97,0.-86,0.5,0.-5,0.-8,-2.-93,0.91,93478.16,674.50
67554,2,1.11,10.0,0.-33,0.4,0.-8,0.-9,-2.-87,0.91,93481.40,674.98
67598,2,1.5,9.97,0.-84,0.5,0.-10,0.-10,-2.-93,0.92,93478.16,675.17
67642,2,0.90,9.99,0.-86,0.2,0.-10,0.-10,-2.-87,0.91,93478.16,674.69
67686,2,0.90,10.3,0.-11,0.2,0.-9,0.-10,-2.-93,0.91,93471.74,674.50
67726,2,0.55,10.16,0.-53,0.4,0.-10,0.-11,-2.-93,0.92,93478.22,675.17
67770,2,0.65,9.96,0.-96,0.2,0.-9,0.-9,-2.-87,0.91,93477.12,674.50
67814,2,1.0,10.2,0.15,0.2,0.-8,0.-9,-2.-87,0.91,93483.54,674.69
67858,2,0.99,10.1,0.-31,0.5,0.-9,0.-11,-2.-87,0.91,93477.6,675.8
67902,2,0.58,10.7,0.-20,0.5,0.-10,0.-10,-2.-87,0.91,93474.98,674.69
67946,2,0.54,10.4,0.-44,0.6,0.-10,0.-9,-2.-81,0.91,93476.2,674.69
67990,2,0.76,9.95,-1.-10,0.3,0.-9,0.-9,-2.-87,0.92,93473.88,674.60
68037,2,0.70,9.98,0.16,0.1,0.-8,0.-8,-2.-93,0.91,93471.74,675.17
68081,2,0.80,10.1,0.-67,0.4,0.-10,0.-8,-2.-93,0.91,93480.30,675.8
68125,2,0.88,10.3,0.-32,0.3,0.-6,0.-9,-2.-87,0.91,93477.6,674.69
68169,2,0.45,10.0,0.-19,0.4,0.-10,0.-9,-2.-87,0.92,93479.26,675.17
68213,2,0.40,10.1,0.-62,0.4,0.-7,0.-5,-2.-93,0.91,93477.12,675.36
68257,2,0.72,10.2,0.-7,0.4,0.-6,0.-5,-2.-87,0.91,93483.54,675.17
68301,2,0.97,10.0,0.-70,0.5,0.-9,0.-5,-2.-93,0.91,93480.30,674.98
68345,2,0.99,10.4,0.-26,0.4,0.-8,0.-6,-2.-87,0.92,93468.56,674.79
68385,2,1.28,10.2,0.-31,0.5,0.-9,0.-8,-2.-87,0.92,93481.40,674.89
68429,2,0.53,10.0,0.-44,0.4,0.-10,0.-9,-2.-93,0.91,93476.2,674.79
68473,2,0.87,9.99,0.-67,0.3,0.-8,0.-8,-2.-93,0.91,93472.78,674.98
68517,2,0.59,10.4,0.19,0.4,0.-9,0.-10,-2.-87,0.91,93478.22,674.89
68561,2,0.32,9.99,0.-87,0.5,0.-10,0.-8,-2.-87,0.91,93478.22,674.50
68605,2,1.12,10.1,0.-35,0.2,0.-6,0.-7,-2.-93,0.92,93477.6,675.17
68649,2,1.11,9.94,0.-46,0.2,0.-11,0.-10,-2.-93,0.92,93477.6,674.60
68693,2,0.64,9.96,0.-62,0.0,0.-10,0.-11,-2.-87,0.92,93478.16,674.98
68733,2,0.-3,10.0,0.5,0.0,0.-9,0.-10,-2.-87,0.92,93479.26,674.50
68777,2,0.68,9.96,0.-66,0.0,0.-7,0.-6,-2.-93,0.92,93479.26,674.60
68821,2,0.34,10.2,0.75,0.1,0.-7,0.-5,-2.-93,0.92,93471.74,675.8
68865,2,0.51,10.1,0.-6,0.7,0.-6,0.-2,-2.-93,0.91,93473.88,674.60
68909,2,0.96,10.2,0.-53,0.6,0.-6,0.-2,-2.-87,0.91,93478.16,674.60
68953,2,0.78,10.1,0.-22,0.6,0.-8,0.-3,-2.-87,0.91,93476.2,674.79
68997,2,0.71,9.96,0.-24,0.6,0.-6,0.-3,-2.-87,0.92,93478.16,674.69
69042,2,1.34,10.2,-1.-9,0.5,0.-7,0.-3,-2.-87,0.91,93474.98,674.79
69082,2,1.33,10.2,0.28,0.1,0.-3,0.-7,-2.-87,0.92,93482.50,675.8
69126,2,1.6,10.2,0.83,0.6,0.-10,0.-10,-2.-87,0.92,93478.22,674.60
69170,2,0.38,10.0,0.-68,0.9,0.-11,0.-9,-2.-87,0.91,93479.26,674.98
69214,2,0.51,9.98,0.-49,0.6,0.-8,0.-5,-2.-87,0.92,93479.26,675.27
69258,2,1.26,10.3,0.-33,0.6,0.-8,0.-6,-2.-87,0.92,93480.36,674.98
69302,2,0.91,10.2,0.-34,0.5,0.-9,0.-9,-2.-87,0.91,93482.44,675.8
69346,2,0.73,10.2,0.-26,0.5,0.-9,0.-8,-2.-87,0.91,93478.16,674.60
69392,2,0.62,10.3,0.-66,0.4,0.-8,0.-8,-2.-87,0.92,93479.26,675.17
69436,2,0.73,10.0,0.2,0.3,0.-9,0.-7,-2.-93,0.91,93476.2,674.69
69480,2,0.80,9.96,0.-36,0.5,0.-9,0.-7,-2.-87,0.91,93476.8,674.69
69524,2,1.3,9.97,0.-24,0.4,0.-7,0.-7,-2.-81,0.92,93470.70,674.79
69568,2,0.47,10.3,0.21,0.6,0.-8,0.-7,-2.-81,0.92,93481.40,675.46
69612,2,0.53,10.4,0.-14,0.8,0.-8,0.-5,-2.-87,0.91,93479.20,674.50
69656,2,0.78,9.98,0.21,0.10,0.-7,0.-4,-2.-87,0.91,93482.50,675.8
69700,2,1.46,9.95,-1.-46,0.10,0.-8,0.-5,-2.-87,0.91,93478.22,675.17
69746,2,0.84,10.3,-1.-32,0.0,0.-8,0.-7,-2.-87,0.91,93480.36,674.60
69790,2,1.24,10.4,0.11,0.-1,0.-9,0.-8,-2.-87,0.91,93478.10,674.50
69834,2,1.6,9.96,0.10,0.1,0.-11,0.-10,-2.-87,0.91,93482.44,675.17
69878,2,0.63,10.4,0.16,0.4,0.-9,0.-10,-2.-87,0.91,93476.2,674.41
69922,2,0.57,10.2,0.41,0.7,0.-8,0.-8,-2.-93,0.90,93478.16,674.69
69966,2,0.81,9.94,0.-36,0.10,0.-8,0.-8,-2.-87,0.91,93481.40,674.79
70010,2,0.42,10.2,0.-23,0.11,0.-12,0.-7,-2.-87,0.91,93485.68,674.89
70055,2,1.18,10.3,0.-68,0.11,0.-8,0.-6,-2.-87,0.91,93473.94,675.27
70095,2,0.86,10.1,0.-61,0.9,0.-8,0.-8,-2.-81,0.92,93473.88,674.89
70139,2,0.70,9.98,0.-70,0.8,0.-8,0.-8,-2.-81,0.92,93481.40,674.98
70183,2,0.56,9.96,0.-89,0.5,0.-8,0.-7,-2.-81,0.91,93481.46,675.27
70237,2,1.20,10.1,0.-13,0.4,0.-5,0.-6,-2.-87,0.91,93476.2,675.17
70281,2,1.10,10.2,0.-67,0.4,0.-9,0.-9,-2.-87,0.91,93482.44,674.79
70325,2,0.75,10.0,0.-8,0.3,0.-9,0.-10,-2.-81,0.91,93481.40,674.89
70369,2,0.32,10.3,0.3,0.6,0.-11,0.-9,-2.-87,0.91,93480.30,674.31
70413,2,0.67,9.98,0.-54,0.7,0.-9,0.-5,-2.-93,0.91,93477.12,674.98
70454,2,1.0,10.2,0.-12,0.7,0.-9,0.-5,-2.-87,0.91,93472.78,674.89
70498,2,1.11,10.1,0.-44,0.8,0.-9,0.-7,-2.-87,0.91,93471.74,674.50
70542,2,1.14,10.4,0.-48,0.7,0.-9,0.-8,-2.-87,0.91,93476.2,674.60
70586,2,0.77,9.98,0.-71,0.6,0.-9,0.-10,-2.-81,0.91,93477.12,675.8
70630,2,0.57,9.97,0.-71,0.4,0.-7,0.-8,-2.-87,0.91,93480.30,675.17
70674,2,0.43,9.97,0.-44,0.3,0.-8,0.-7,-2.-87,0.91,93478.22,674.79
70718,2,1.0,10.1,0.-66,0.3,0.-7,0.-5,-2.-87,0.91,93476.8,675.27
70762,2,1.13,10.4,0.-15,0.2,0.-8,0.-7,-2.-87,0.91,93474.98,674.89
70802,2,0.80,10.1,0.28,0.4,0.-9,0.-7,-2.-81,0.93,93481.40,674.98
70846,2,0.62,9.97,0.-73,0.6,0.-8,0.-7,-2.-87,0.91,93476.8,675.27
70890,2,1.1,9.98,0.-54,0.4,0.-8,0.-6,-2.-81,0.91,93480.30,674.69
70934,2,1.10,10.4,0.-13,0.4,0.-8,0.-8,-2.-87,0.91,93477.12,674.69
70978,2,0.48,10.2,0.-16,0.6,0.-8,0.-9,-2.-87,0.91,93479.26,675.74
71022,2,0.57,9.98,0.-54,0.7,0.-8,0.-8,-2.-81,0.92,93477.12,674.69
71067,2,0.70,9.98,0.-91,0.5,0.-8,0.-6,-2.-81,0.91,93479.26,674.59
71112,2,0.74,10.4,0.-13,0.4,0.-9,0.-6,-2.-81,0.91,93480.36,675.55
71156,2,0.78,9.98,0.-40,0.6,0.-8,0.-5,-2.-81,0.92,93471.74,674.69
71200,2,0.80,10.1,-1.-2,0.5,0.-9,0.-5,-2.-81,0.92,93481.40,674.60
71244,2,1.3,10.3,0.-19,0.1,0.-7,0.-6,-2.-81,0.92,93477.12,675.7
71288,2,0.96,9.99,0.-4,0.3,0.-8,0.-7,-2.-87,0.92,93474.98,675.36
71332,2,0.89,9.96,0.-69,0.4,0.-9,0.-7,-2.-81,0.92,93478.22,675.36
71376,2,0.97,10.0,0.-29,0.3,0.-10,0.-8,-2.-81,0.92,93479.26,674.50
71420,2,0.84,10.5,0.1,0.4,0.-10,0.-8,-2.-81,0.92,93477.12,674.89
71460,2,0.91,10.2,0.-52,0.5,0.-10,0.-8,-2.-87,0.91,93476.8,674.79
71504,2,0.96,10.3,0.-26,0.5,0.-8,0.-9,-2.-81,0.92,93473.94,674.69
71548,2,0.75,9.99,0.-10,0.6,0.-8,0.-9,-2.-81,0.92,93476.2,675.36
71592,2,0.49,10.4,0.-47,0.6,0.-8,0.-7,-2.-81,0.92,93480.36,674.40
71636,2,0.73,10.2,0.-11,0.6,0.-8,0.-7,-2.-81,0.92,93480.36,674.41
71680,2,0.71,10.0,0.-94,0.7,0.-9,0.-7,-2.-81,0.91,93480.36,674.89
71724,2,0.89,9.99,0.-73,0.4,0.-7,0.-7,-2.-87,0.92,93481.46,674.69
71768,2,1.5,10.2,0.6,0.4,0.-9,0.-8,-2.-93,0.92,93475.4,675.8
71808,2,0.71,9.99,0.-38,0.6,0.-9,0.-9,-2.-87,0.92,93472.84,674.88
71852,2,0.44,9.97,-1.-3,0.5,0.-9,0.-8,-2.-87,0.92,93478.22,675.36
71896,2,0.62,10.0,0.-31,0.1,0.-7,0.-6,-2.-81,0.93,93476.8,675.8
71940,2,0.99,10.0,0.40,0.4,0.-8,0.-6,-2.-87,0.91,93473.94,674.88
71984,2,0.82,10.2,0.-63,0.6,0.-9,0.-7,-2.-87,0.92,93471.74,675.17
72028,2,0.66,10.5,0.-42,0.5,0.-9,0.-6,-2.-81,0.92,93480.36,675.27
72073,2,0.80,9.98,0.-7,0.5,0.-8,0.-5,-2.-87,0.93,93478.16,675.27
72117,2,1.6,10.1,0.-68,0.6,0.-8,0.-6,-2.-87,0.92,93477.18,674.88
72157,2,0.87,10.0,0.-51,0.5,0.-8,0.-7,-2.-87,0.92,93467.51,675.64
72201,2,0.79,10.3,0.-28,0.5,0.-8,0.-6,-2.-81,0.93,93478.22,675.17
72245,2,1.16,9.99,0.-61,0.5,0.-8,0.-7,-2.-81,0.92,93477.18,674.79
72289,2,1.28,10.2,0.-57,0.4,0.-8,0.-9,-2.-81,0.92,93481.40,674.60
72333,2,0.77,10.3,0.-35,0.3,0.-10,0.-11,-2.-87,0.92,93476.8,674.69
72377,2,0.49,10.2,0.13,0.5,0.-9,0.-10,-2.-81,0.92,93480.36,675.17
72421,2,0.78,10.1,0.-56,0.7,0.-9,0.-8,-2.-81,0.92,93478.22,674.79
72465,2,0.53,9.94,0.-67,0.3,0.-8,0.-8,-2.-81,0.91,93481.46,675.17
72505,2,0.81,10.3,0.3,0.4,0.-8,0.-7,-2.-81,0.92,93475.4,674.69
72549,2,0.98,9.96,0.-78,0.4,0.-8,0.-7,-2.-81,0.92,93480.42,675.17
72593,2,0.65,10.4,0.3,0.3,0.-7,0.-7,-2.-81,0.92,93480.36,674.98
72637,2,0.92,9.97,0.-40,0.6,0.-9,0.-7,-2.-87,0.92,93476.8,674.79
72681,2,0.78,9.98,0.-53,0.4,0.-8,0.-6,-2.-81,0.93,93481.40,674.69
72725,2,1.21,10.0,0.8,0.5,0.-8,0.-7,-2.-81,0.92,93476.8,674.98
72769,2,0.70,10.1,0.-21,0.7,0.-8,0.-7,-2.-87,0.92,93478.22,675.46
72815,2,1.47,9.99,0.-44,0.8,0.-9,0.-10,-2.-87,0.91,93475.4,674.98
72859,2,0.77,10.1,0.-66,0.7,0.-9,0.-12,-2.-87,0.92,93476.8,675.27
72903,2,0.76,10.2,0.-42,0.6,0.-8,0.-12,-2.-87,0.92,93481.40,675.26
72947,2,0.37,10.28,0.-27,0.6,0.-9,0.-12,-2.-81,0.92,93479.32,675.46
72991,2,0.-22,10.0,0.-91,0.6,0.-8,0.-8,-2.-87,0.92,93474.98,674.60
73035,2,0.84,10.4,0.-86,0.4,0.-7,0.-5,-2.-87,0.92,93483.60,674.89
73080,2,1.15,10.0,0.-35,0.3,0.-9,0.-7,-2.-81,0.92,93478.22,674.79
73124,2,0.98,10.1,0.-33,0.4,0.-9,0.-9,-2.-81,0.93,93477.18,675.26
73164,2,0.81,10.4,0.-42,0.5,0.-8,0.-10,-2.-81,0.92,93480.36,675.17
73208,2,1.3,10.4,0.-39,0.4,0.-6,0.-11,-2.-81,0.93,93484.64,674.88
73252,2,1.3,10.7,0.6,0.5,0.-5,0.-12,-2.-87,0.93,93477.18,674.88
73296,2,0.22,10.5,0.-78,0.7,0.-14,0.-11,-2.-87,0.92,93479.26,674.98
73340,2,0.9,9.98,-1.-5,0.4,0.-9,0.-9,-2.-93,0.92,93473.94,674.78
73384,2,0.44,9.95,0.-35,0.2,0.-8,0.-5,-2.-87,0.92,93480.36,674.60
73428,2,0.48,10.0,0.-39,0.2,0.-9,0.-4,-2.-87,0.92,93473.94,674.69
73472,2,0.95,9.98,0.-70,0.1,0.-8,0.-3,-2.-87,0.92,93472.96,674.97
73512,2,1.43,10.4,0.-2,0.1,0.-9,0.-6,-2.-87,0.92,93484.71,675.7
73556,2,1.6,10.5,0.9,0.2,0.-8,0.-11,-2.-87,0.93,93478.22,675.7
73600,2,0.44,10.0,0.-9,0.4,0.0,0.-11,-2.-81,0.92,93481.40,675.16
73644,2,0.40,10.0,0.-41,0.4,0.-9,0.-10,-2.-87,0.92,93475.4,674.60
73688,2,0.31,10.1,0.-52,0.2,0.-13,0.-9,-2.-87,0.92,93480.36,674.50
73732,2,0.75,9.98,0.-44,0.2,0.-9,0.-7,-2.-81,0.92,93476.8,675.7
73776,2,0.60,10.3,0.-3,0.1,0.-7,0.-7,-2.-81,0.93,93476.8,674.79
73820,2,0.38,9.99,0.-39,0.3,0.-5,0.-5,-2.-81,0.92,93473.94,674.59
73860,2,0.95,10.4,0.-39,0.1,0.-6,0.-6,-2.-81,0.92,93476.14,674.97
73904,2,0.87,10.8,0.29,0.2,0.-8,0.-7,-2.-87,0.92,93478.22,674.98
73948,2,0.77,10.0,0.-83,0.4,0.-11,0.-9,-2.-81,0.93,93476.2,675.17
73992,2,0.64,9.93,0.-19,0.2,0.-10,0.-10,-2.-81,0.93,93473.94,674.78
74036,2,0.56,10.2,0.-19,0.4,0.-12,0.-9,-2.-87,0.92,93473.94,675.7
74081,2,0.71,9.96,0.-11,0.4,0.-6,0.-9,-2.-87,0.94,93472.84,674.50
74125,2,0.62,10.3,0.37,0.6,0.-7,0.-9,-2.-87,0.92,93477.18,674.69
74169,2,0.51,10.1,0.-65,0.8,0.-7,0.-8,-2.-87,0.93,93478.28,674.68
74209,2,0.33,9.99,0.-75,0.6,0.-9,0.-7,-2.-87,0.93,93476.8,674.59
74253,2,0.60,10.0,0.-30,0.4,0.-9,0.-5,-2.-87,0.92,93472.90,674.88
74297,2,0.89,10.7,0.-19,0.5,0.-9,0.-7,-2.-81,0.92,93475.4,674.78
74341,2,0.64,10.1,0.-15,0.5,0.-8,0.-8,-2.-87,0.93,93469.66,674.78
74385,2,0.35,9.98,0.-14,0.6,0.-8,0.-7,-2.-81,0.93,93477.18,674.79
74429,2,0.51,10.4,0.-31,0.6,0.-8,0.-5,-2.-81,0.92,93482.50,675.7
74473,2,0.64,10.6,0.-39,0.6,0.-8,0.-5,-2.-81,0.92,93473.94,674.69
74519,2,0.65,9.97,0.-65,0.5,0.-7,0.-5,-2.-81,0.92,93479.26,674.98
74563,2,1.31,10.0,0.-23,0.4,0.-7,0.-6,-2.-81,0.91,93482.50,675.7
74607,2,0.81,10.0,0.26,0.5,0.-10,0.-9,-2.-81,0.92,93476.8,674.31
74651,2,0.45,10.2,0.-57,0.7,0.-9,0.-9,-2.-81,0.92,93478.22,674.79
74695,2,0.66,10.7,0.-23,0.5,0.-8,0.-8,-2.-81,0.92,93478.22,674.88
74739,2,0.47,10.0,0.-42,0.6,0.-9,0.-9,-2.-81,0.92,93471.80,674.40
74783,2,0.39,9.99,0.-40,0.4,0.-8,0.-7,-2.-87,0.92,93474.98,674.79
74827,2,0.81,9.98,0.-19,0.4,0.-8,0.-6,-2.-81,0.93,93481.46,675.26
74867,2,0.69,10.0,0.-39,0.5,0.-9,0.-7,-2.-81,0.92,93471.80,675.17
74911,2,0.59,10.1,0.-14,0.5,0.-8,0.-7,-2.-75,0.92,93474.0,674.79
74955,2,0.73,10.3,0.-68,0.5,0.-8,0.-7,-2.-81,0.93,93480.42,674.88
74999,2,0.53,10.4,0.-21,0.4,0.-8,0.-8,-2.-81,0.93,93479.32,674.98
75043,2,0.68,10.4,0.-69,0.3,0.-9,0.-7,-2.-81,0.92,93474.98,674.40
75088,2,0.80,9.99,0.-3,0.2,0.-8,0.-7,-2.-87,0.93,93482.57,675.17
75132,2,0.60,10.2,0.-19,0.4,0.-9,0.-8,-2.-87,0.93,93477.18,675.17
75176,2,0.67,10.4,0.-33,0.4,0.-8,0.-7,-2.-81,0.92,93475.4,674.69
75216,2,0.68,10.3,0.4,0.4,0.-8,0.-8,-2.-75,0.93,93477.18,675.16
75260,2,0.42,10.1,0.-11,0.5,0.-8,0.-8,-2.-87,0.93,93478.28,674.88
75304,2,0.33,9.99,0.-58,0.5,0.-10,0.-6,-2.-81,0.93,93481.46,675.8
75348,2,0.90,10.3,0.-42,0.3,0.-8,0.-6,-2.-81,0.93,93473.94,674.50
75392,2,0.63,10.0,0.3,0.4,0.-9,0.-7,-2.-81,0.92,93477.18,674.88
75436,2,0.68,10.0,0.-30,0.4,0.-9,0.-7,-2.-81,0.92,93480.42,674.12
75480,2,0.40,10.7,0.-15,0.4,0.-9,0.-6,-2.-81,0.93,93473.94,674.69
75524,2,0.59,10.5,0.-25,0.5,0.-7,0.-6,-2.-75,0.92,93479.39,674.87
75564,2,0.94,10.3,0.-16,0.4,0.-7,0.-6,-2.-81,0.93,93476.14,674.78
75608,2,0.77,10.2,0.-11,0.5,0.-8,0.-7,-2.-81,0.93,93472.90,675.17
75652,2,0.26,9.99,0.-22,0.6,0.-9,0.-7,-2.-81,0.94,93478.28,674.68
75696,2,0.49,10.7,0.14,0.7,0.-8,0.-5,-2.-81,0.93,93478.28,674.40
75740,2,0.74,10.4,0.-8,0.8,0.-8,0.-4,-2.-75,0.92,93469.71,675.7
75784,2,0.54,10.0,0.-40,0.8,0.-7,0.-4,-2.-75,0.93,93480.42,674.69
75828,2,0.94,10.1,0.-30,0.8,0.-8,0.-4,-2.-75,0.93,93484.71,675.7
75872,2,0.37,10.4,0.-74,0.7,0.-8,0.-4,-2.-75,0.92,93481.46,675.35
75912,2,0.69,9.98,0.-90,0.4,0.-7,0.-2,-2.-81,0.93,93476.14,675.7
75956,2,1.39,10.0,0.-30,0.2,0.-7,0.-4,-2.-81,0.92,93479.32,674.87
76000,2,1.16,10.4,0.-39,0.3,0.-9,0.-7,-2.-81,0.93,93476.8,673.92
76044,2,1.5,10.5,0.-33,0.2,0.-9,0.-9,-2.-81,0.93,93479.32,675.7
76089,2,0.84,10.3,0.-34,0.2,0.-9,0.-11,-2.-87,0.93,93480.36,674.97
76133,2,0.75,9.98,0.-57,0.0,0.-9,0.-11,-2.-81,0.93,93476.14,675.7
76177,2,0.69,10.3,0.26,0.0,0.-9,0.-11,-2.-87,0.92,93477.18,674.88
76223,2,0.38,10.1,0.14,0.4,0.-10,0.-11,-2.-81,0.91,93478.28,675.7
76267,2,0.41,10.3,0.-46,0.5,0.-9,0.-8,-2.-75,0.93,93480.42,674.88
76311,2,0.56,10.1,0.-28,0.3,0.-8,0.-7,-2.-81,0.93,93476.8,674.68
76355,2,0.81,10.2,0.-53,0.3,0.-8,0.-7,-2.-75,0.93,93473.94,674.59
76399,2,0.67,10.5,0.0,0.1,0.-8,0.-8,-2.-75,0.93,93479.32,674.88
76443,2,0.66,10.8,0.20,0.3,0.-9,0.-8,-2.-81,0.93,93476.14,675.16
76487,2,0.55,9.98,0.-18,0.5,0.-9,0.-8,-2.-81,0.93,93483.60,674.69
76531,2,0.74,10.5,0.-24,0.4,0.-8,0.-7,-2.-75,0.93,93481.53,674.88
76577,2,0.46,10.3,0.-14,0.5,0.-9,0.-8,-2.-87,0.92,93473.94,674.88
76621,2,0.77,10.0,0.-45,0.4,0.-8,0.-7,-2.-81,0.93,93477.18,674.98
76665,2,0.50,10.4,0.-15,0.3,0.-8,0.-7,-2.-81,0.93,93480.49,675.8
76709,2,0.58,10.4,0.10,0.3,0.-7,0.-6,-2.-81,0.92,93479.32,675.26
76753,2,1.1,10.3,0.-1,0.5,0.-8,0.-7,-2.-81,0.93,93478.22,674.88
76797,2,0.48,10.2,0.-43,0.4,0.-9,0.-7,-2.-81,0.92,93478.22,674.97
76841,2,0.81,10.0,0.-3,0.3,0.-8,0.-7,-2.-87,0.92,93476.8,674.97
76885,2,0.86,10.2,0.22,0.5,0.-9,0.-8,-2.-81,0.93,93477.25,675.83
76925,2,0.51,10.3,0.-9,0.7,0.-10,0.-10,-2.-81,0.93,93478.22,675.35
76969,2,0.39,10.1,0.-60,0.5,0.-9,0.-8,-2.-81,0.92,93474.0,674.69
77013,2,1.12,10.12,0.-45,0.4,0.-8,0.-8,-2.-81,0.93,93479.32,674.69
77057,2,0.73,10.2,0.20,0.5,0.-9,0.-9,-2.-81,0.93,93475.4,674.88
77102,2,0.57,10.0,0.-13,0.7,0.-10,0.-9,-2.-75,0.93,93474.98,675.35
77146,2,0.53,10.2,0.-33,0.7,0.-9,0.-8,-2.-81,0.93,93477.18,674.68
77190,2,0.68,10.1,0.-36,0.6,0.-8,0.-8,-2.-87,0.92,93471.80,674.69
77234,2,0.55,10.2,0.-13,0.5,0.-8,0.-9,-2.-81,0.92,93476.14,674.97
77274,2,0.60,10.4,0.-44,0.5,0.-9,0.-8,-2.-81,0.93,93478.28,674.97
77318,2,0.93,10.3,0.-70,0.2,0.-7,0.-9,-2.-87,0.93,93477.25,674.97
77362,2,0.-24,10.0,0.8,0.1,0.-7,0.-8,-2.-81,0.93,93477.18,675.17
77406,2,0.98,10.2,0.56,0.4,0.-6,0.-5,-2.-87,0.93,93478.22,674.31
77450,2,1.31,10.1,0.-9,0.7,0.-10,0.-10,-2.-81,0.93,93480.36,674.88
77494,2,1.6,10.2,0.-26,0.7,0.-10,0.-13,-2.-81,0.93,93473.94,675.7
77538,2,0.-78,9.81,0.2,0.7,0.-10,0.-13,-2.-81,0.93,93480.42,675.36
77582,2,-1.-9,9.93,0.-33,0.6,0.-7,0.-4,-2.-87,0.92,93480.36,674.50
77625,2,1.89,10.12,0.26,0.6,0.-2,0.0,-2.-81,0.92,93475.4,674.98
77669,2,0.-41,9.93,0.-50,0.7,0.-8,0.-3,-2.-87,0.92,93471.80,674.97
77713,2,0.-24,10.1,0.-38,0.6,0.-6,0.2,-2.-87,0.93,93475.4,675.6
77757,2,0.76,9.99,0.-70,0.3,0.-4,0.4,-2.-87,0.93,93476.8,675.36
77801,2,0.44,10.3,0.-73,0.1,0.-8,0.4,-2.-81,0.92,93481.53,674.98
77845,2,0.69,10.4,0.-44,0.0,0.-4,0.5,-2.-87,0.92,93470.75,674.97
77889,2,3.40,10.6,0.0,0.-3,0.-9,0.1,-2.-87,0.93,93481.46,674.59
77935,2,1.25,10.6,0.75,0.0,0.-9,0.-10,-2.-81,0.92,93471.80,674.88
77979,2,1.24,10.4,0.46,0.3,0.-10,0.-12,-2.-81,0.93,93478.28,674.88
78023,2,0.47,10.4,0.-10,0.5,0.-10,0.-13,-2.-81,0.92,93477.18,674.79
78067,2,1.24,10.1,0.-38,0.5,0.-9,0.-13,-2.-81,0.92,93472.90,674.69
78112,2,0.38,10.4,0.-13,0.3,0.-10,0.-14,-2.-87,0.93,93478.22,675.7
78156,2,0.58,10.0,0.23,0.4,0.-9,0.-11,-2.-81,0.92,93477.18,674.78
78200,2,0.64,10.1,0.11,0.6,0.-10,0.-10,-2.-81,0.92,93479.32,674.78
78244,2,1.9,10.3,0.-10,0.7,0.-9,0.-10,-2.-87,0.93,93475.4,675.16
78284,2,1.7,10.3,0.-33,0.6,0.-9,0.-12,-2.-87,0.93,93478.28,674.68
78328,2,0.60,10.0,0.-32,0.6,0.-11,0.-13,-2.-87,0.94,93479.39,674.97
78372,2,0.17,10.0,0.-3,0.6,0.-9,0.-11,-2.-87,0.93,93475.4,675.7
78416,2,0.13,10.0,0.-64,0.4,0.-8,0.-8,-2.-87,0.92,93480.42,674.69
78460,2,0.88,10.2,0.-14,0.0,0.-5,0.-6,-2.-75,0.92,93478.28,674.79
78504,2,1.15,10.4,0.69,0.3,0.-8,0.-8,-2.-87,0.93,93480.42,674.49
78548,2,0.62,10.5,0.-24,0.5,0.-10,0.-10,-2.-81,0.93,93473.94,675.17
78592,2,0.26,10.6,0.-29,0.5,0.-9,0.-9,-2.-81,0.92,93478.28,674.68
78632,2,0.58,10.1,0.-48,0.4,0.-8,0.-7,-2.-81,0.93,93476.14,674.69
78676,2,0.81,10.4,0.-58,0.0,0.-7,0.-7,-2.-87,0.92,93480.42,674.97
78720,2,0.85,10.2,0.71,0.1,0.-8,0.-8,-2.-87,0.93,93475.4,674.78
78764,2,0.80,10.4,0.9,0.5,0.-10,0.-10,-2.-87,0.94,93471.80,675.45
78808,2,0.44,10.6,0.-1,0.5,0.-10,0.-11,-2.-93,0.93,93480.42,674.40
78852,2,0.33,10.2,0.-9,0.5,0.-9,0.-9,-2.-87,0.93,93482.57,675.6
78896,2,0.73,10.0,0.6,0.4,0.-9,0.-8,-2.-81,0.93,93476.14,674.59
78940,2,0.46,10.4,0.6,0.5,0.-9,0.-9,-2.-87,0.92,93478.28,674.97
78980,2,0.26,10.1,0.-27,0.6,0.-9,0.-8,-2.-81,0.94,93479.32,674.78
79024,2,0.76,9.99,0.2,0.5,0.-8,0.-6,-2.-87,0.93,93478.28,674.98
79068,2,0.52,10.4,0.-18,0.5,0.-6,0.-7,-2.-75,0.92,93477.25,674.87
79113,2,0.55,10.2,0.10,0.5,0.-7,0.-7,-2.-87,0.93,93476.14,674.78
79157,2,1.25,10.7,0.18,0.6,0.-8,0.-9,-2.-87,0.92,93477.18,674.69
79201,2,0.50,10.1,0.-21,0.8,0.-12,0.-11,-2.-87,0.93,93474.0,674.88
79245,2,0.27,10.0,0.-59,0.4,0.-7,0.-9,-2.-93,0.93,93481.46,674.97
79289,2,0.64,10.7,0.-37,0.2,0.-8,0.-9,-2.-81,0.94,93479.32,674.78
79329,2,0.54,10.1,0.-50,0.1,0.-10,0.-10,-2.-87,0.94,93479.39,674.78
79373,2,0.99,9.95,0.-33,0.0,0.-7,0.-9,-2.-87,0.93,93483.67,674.40
79417,2,0.-8,10.64,-1.-79,0.38,0.-25,0.-8,-2.-87,0.92,93480.42,674.97
79461,2,0.-28,9.82,-1.-4,0.-3,0.-2,0.-5,-2.-81,0.93,93477.18,675.26
79505,2,1.12,10.19,0.76,0.8,0.-11,0.-5,-2.-81,0.93,93480.42,674.78
79549,2,0.82,10.4,0.-68,0.6,0.-7,0.-7,-2.-87,0.93,93480.49,674.87
79593,2,1.78,10.8,0.-20,0.2,0.-7,0.-12,-2.-81,0.93,93476.14,674.68
79633,2,0.30,10.5,1.49,0.0,0.-6,0.-17,-2.-87,0.93,93476.14,675.17
79677,2,0.-92,9.91,0.22,0.10,0.-10,0.-12,-2.-81,0.93,93476.14,674.97
79721,2,1.74,9.26,0.-25,0.1,0.3,0.-10,-2.-81,0.94,93478.22,674.97
79765,2,0.87,9.93,0.0,0.8,0.-7,0.-9,-2.-81,0.93,93482.57,674.49
79809,2,0.-23,10.13,0.-79,0.3,0.-8,0.-10,-2.-87,0.93,93475.4,675.16
79853,2,0.99,10.7,0.-34,0.2,0.-9,0.-7,-2.-87,0.94,93479.39,675.26
79897,2,0.61,9.74,0.-58,0.29,0.-28,0.-3,-2.-81,0.93,93477.25,674.78
79941,2,0.-47,9.93,0.-37,0.4,0.-4,0.-5,-2.-87,0.94,93479.39,674.87
79981,2,0.79,10.11,0.33,0.6,0.-3,0.-2,-2.-81,0.93,93477.25,674.68
80025,2,1.59,10.33,0.82,0.-19,0.11,0.-11,-2.-87,0.93,93493.27,674.97
80069,2,1.67,9.14,0.46,0.10,0.-13,0.-6,-2.-75,0.93,93475.4,674.68
80114,2,0.-7,10.11,0.-62,0.5,0.-2,0.-12,-2.-75,0.93,93502.94,672.88
80158,2,-1.-5,10.13,0.38,0.6,0.-4,0.-8,-2.-75,0.93,93478.28,674.59
80202,2,0.0,9.99,0.34,0.3,0.0,0.-3,-2.-81,0.92,93479.32,674.69
80256,2,0.49,9.94,0.-34,0.-6,0.9,0.-5,-2.-75,0.93,93469.66,674.69
80300,2,1.17,10.22,1.4,0.7,0.-8,0.-8,-2.-81,0.92,93484.71,674.69
80341,2,0.0,9.92,0.-5,0.11,0.-21,0.-5,-2.-75,0.93,93485.75,674.68
80385,2,0.49,9.92,0.70,0.13,0.-9,0.-5,-2.-81,0.92,93480.36,674.78
80429,2,0.-10,10.17,0.-98,0.8,0.-12,0.-5,-2.-75,0.93,93479.32,674.40
80473,2,1.86,10.1,1.40,0.7,0.-23,0.-4,-2.-75,0.94,93491.13,671.74
80517,2,0.-42,8.90,1.85,0.13,0.-17,0.-11,-2.-75,0.93,93477.25,674.40
80561,2,0.75,9.65,-1.-76,0.14,0.-30,0.-8,-2.-81,0.93,93481.46,675.16
80605,2,0.-28,10.4,1.7,0.11,0.-10,0.-5,-2.-81,0.93,93482.57,672.78
80645,2,1.10,10.51,0.-60,0.11,0.9,0.-7,-2.-81,0.93,93500.80,673.16
80689,2,0.64,10.78,-1.-62,0.13,0.3,0.-10,-2.-81,0.93,93492.17,673.26
80733,2,0.40,10.29,-4.-10,0.-14,0.-5,0.-15,-2.-81,0.93,93475.4,674.21
80777,2,0.52,10.6,0.-57,0.-17,0.-10,0.-9,-2.-81,0.93,93475.4,674.59
80821,2,1.43,9.73,3.5,0.-11,0.-15,0.-15,-2.-75,0.94,93482.57,674.30
80865,2,0.-48,10.32,1.14,0.0,0.-8,0.-16,-2.-75,0.94,93551.9,666.32
80909,2,0.-38,10.55,0.-77,0.12,0.-13,0.-5,-2.-81,0.93,93643.17,661.75
80953,2,0.96,10.44,0.-62,0.5,0.-7,0.-9,-2.-81,0.93,93593.92,664.98
80993,2,0.-21,12.12,0.-72,0.-5,0.-3,0.-21,-2.-75,0.94,93498.66,672.41
81037,2,0.11,10.18,0.44,0.5,0.-9,0.-15,-2.-75,0.93,93518.97,670.22
81081,2,0.-32,9.14,0.-56,0.0,0.-7,0.-19,-2.-81,0.92,93515.78,674.2
81126,2,0.97,8.94,1.27,0.0,0.-17,0.-12,-2.-81,0.92,93484.64,674.31
81170,2,0.95,9.94,0.31,0.1,0.-5,0.-18,-2.-87,0.93,93485.75,675.16
81214,2,0.-90,10.19,0.14,0.1,0.-2,0.-15,-2.-75,0.92,93478.22,674.69
81258,2,0.33,9.40,0.0,0.2,0.-5,0.-13,-2.-81,0.93,93476.8,674.78
81299,2,0.-38,10.22,0.-13,0.2,0.-10,0.-12,-2.-75,0.93,93478.28,675.17
81343,2,0.-2,10.85,0.29,0.3,0.-4,0.-10,-2.-81,0.92,93478.22,674.79
81387,2,0.-24,10.3,0.83,0.4,0.-8,0.-8,-2.-75,0.92,93470.70,674.21
81431,2,0.11,10.8,0.87,0.10,0.0,0.-5,-2.-75,0.92,93479.26,674.79
81475,2,0.-29,10.4,0.-2,0.11,0.-7,0.-6,-2.-75,0.93,93480.36,674.98
81519,2,0.-54,9.98,0.-64,0.8,0.-3,0.-3,-2.-75,0.92,93476.8,674.98
81563,2,0.5,9.92,0.23,0.6,0.-12,0.0,-2.-81,0.92,93480.30,674.98
81607,2,0.85,9.97,0.6,0.7,0.-9,0.-1,-2.-75,0.92,93476.14,674.50
81647,2,0.1,9.86,0.12,0.6,0.-11,0.-4,-2.-81,0.92,93479.32,674.88
81691,2,0.-47,10.8,0.-54,0.7,0.-8,0.-1,-2.-75,0.92,93477.18,674.98
81735,2,0.38,10.14,0.14,0.5,0.2,0.1,-2.-68,0.92,93478.16,674.98
81779,2,1.13,10.12,0.0,0.4,0.15,0.-1,-2.-75,0.92,93472.90,674.69
81823,2,0.2,9.93,0.-95,0.0,0.-8,0.-4,-2.-75,0.92,93482.50,675.7
81867,2,0.23,9.97,0.-81,0.-4,0.-15,0.-3,-2.-75,0.92,93471.80,674.98
81911,2,0.54,10.7,0.65,0.-4,0.-19,0.-5,-2.-75,0.92,93479.26,674.88
81955,2,0.55,10.4,0.-2,0.-3,0.-15,0.-5,-2.-75,0.92,93487.89,674.21
81995,2,0.33,9.99,0.24,0.-3,0.-10,0.-7,-2.-81,0.92,93470.70,674.60
82039,2,-1.-5,10.1,1.31,0.-1,0.-9,0.-3,-2.-75,0.93,93480.36,674.79
