millis(),currentState,calculatedFlightTime,IMUAcc.acceleration.x,IMUAcc.acceleration.y,IMUAcc.acceleration.z,IMUGyro.gyro.x,IMUGyro.gyro.y,IMUGyro.gyro.z,IMUTher.temperature,BARO.readTemperature,BARO.readPressure,BARO.readAltitude,orientation.actual.roll,orientation.actual.pitch,orientation.actual.yaw
495,0.-91,9.97,0.55,0.3,0.-20,0.-8,6.0,10.26,92542.0,758.82,0.0,0.0,0.0
541,2,541,0.-86,10.0,0.2,0.5,0.-12,0.-5,6.0,10.28,92541.96,758.24,0.0,0.0,0.0
587,2,587,0.-88,10.2,0.26,0.5,0.-7,0.-4,6.6,10.30,92534.18,758.6,0.0,0.0,0.0
630,2,630,0.3,9.99,0.2,0.5,0.-10,0.-2,6.6,10.32,92539.57,758.45,0.0,0.0,0.0
676,2,676,0.55,10.1,0.14,0.4,0.-8,0.-4,6.0,10.32,92542.82,758.65,0.0,0.0,0.0
722,2,722,0.-24,9.95,0.-8,0.2,0.-13,0.-8,6.0,10.33,92545.7,757.96,0.0,0.0,0.0
768,2,768,-1.-10,10.3,0.-40,0.-1,0.-10,0.-7,6.6,10.33,92539.52,759.4,0.0,0.0,0.0
814,2,814,0.-84,9.96,0.1,0.0,0.-42,0.-2,6.12,10.33,92545.1,758.6,0.0,0.0,0.0
860,2,860,0.26,10.2,1.5,0.2,0.-10,0.-3,6.6,10.33,92541.66,758.55,0.0,0.0,0.0
906,2,906,0.18,9.99,0.51,0.5,0.-3,0.-6,6.6,10.33,92539.52,758.6,0.0,0.0,0.0
949,2,949,0.-22,10.8,0.17,0.5,0.-22,0.-7,6.6,10.33,92529.71,758.75,0.0,0.0,0.0
995,2,995,0.-35,10.4,0.25,0.6,0.-35,0.-6,6.12,10.33,92536.22,758.65,0.0,0.0,0.0
1042,2,1042,0.-33,10.3,0.0,0.6,0.-8,0.-7,6.12,10.33,92536.22,758.46,0.0,0.0,0.0
1088,2,1088,0.-5,10.1,0.17,0.5,0.-16,0.-6,6.12,10.33,92534.3,758.36,0.0,0.0,0.0
1134,2,1134,0.-33,10.6,0.0,0.5,0.-20,0.-7,6.12,10.33,92537.34,758.36,0.0,0.0,0.0
1180,2,1180,0.1,10.0,0.-13,0.2,0.-5,0.-7,6.12,10.33,92538.40,758.26,0.0,0.0,0.0
1228,2,1228,0.-8,10.5,0.15,0.1,0.-35,0.-9,6.12,10.34,92537.28,758.85,0.0,0.0,0.0
1274,2,1274,0.-6,10.4,0.10,0.1,0.-24,0.-10,6.12,10.33,92535.15,758.55,0.0,0.0,0.0
1320,2,1320,0.-15,10.2,0.10,0.1,0.-20,0.-11,6.18,10.34,92535.15,759.14,0.0,0.0,0.0
1366,2,1366,0.-52,9.77,0.50,0.4,0.-22,0.-9,6.12,10.34,92527.53,758.56,0.0,0.0,0.0
1412,2,1412,0.-9,10.5,0.29,0.3,0.1,0.-8,6.18,10.33,92540.59,758.55,0.0,0.0,0.0
1458,2,1458,0.-7,10.3,0.49,0.5,0.-13,0.-10,6.25,10.33,92535.15,758.46,0.0,0.0,0.0
1504,2,1506,0.-28,10.0,0.56,0.5,0.-24,0.-9,6.18,10.33,92541.71,758.74,0.0,0.0,0.0
1547,2,1547,0.-46,9.83,0.62,0.7,0.-25,0.-7,6.18,10.33,92536.27,758.16,0.0,0.0,0.0
1593,2,1593,0.-59,9.89,0.8,0.10,0.-12,0.-8,6.25,10.33,92539.52,758.46,0.0,0.0,0.0
1639,2,1639,0.-27,9.97,0.17,0.8,0.2,0.-7,6.18,10.33,92537.34,758.84,0.0,0.0,0.0
1685,2,1685,0.-32,10.1,0.28,0.10,0.-6,0.-6,6.25,10.33,92535.15,758.75,0.0,0.0,0.0
1731,2,1731,0.-14,10.5,0.6,0.10,0.-19,0.-6,6.31,10.33,92536.22,758.65,0.0,0.0,0.0
1777,2,1777,0.-33,10.4,0.40,0.10,0.-32,0.-6,6.18,10.33,92535.15,759.4,0.0,0.0,0.0
1820,2,1820,0.-20,10.9,0.-10,0.11,0.-15,0.-6,6.18,10.33,92537.34,759.43,0.0,0.0,0.0
1866,2,1866,0.12,10.0,0.-14,0.10,0.-5,0.-8,6.25,10.33,92536.32,759.43,0.0,0.0,0.0
1912,2,1912,0.-38,9.97,0.-13,0.8,0.3,0.-8,6.25,10.33,92542.78,759.24,0.0,0.0,0.0
1958,2,1958,0.-46,10.1,0.-66,0.9,0.-25,0.-6,6.18,10.33,92540.59,758.56,0.0,0.0,0.0
2004,2,2004,0.-21,9.98,0.-71,0.5,0.-34,0.-5,6.18,10.34,92541.66,759.24,0.0,0.0,0.0
2051,2,2051,0.-72,10.1,0.31,0.3,0.-11,0.-6,6.25,10.33,92540.59,759.4,0.0,0.0,0.0
2093,2,2093,0.39,10.7,0.47,0.5,0.-22,0.-4,6.18,10.33,92542.78,759.34,0.0,0.0,0.0
2139,2,2139,0.0,10.9,0.8,0.6,0.-3,0.-10,6.25,10.33,92534.3,759.34,0.0,0.0,0.0
2185,2,2185,0.-71,10.0,0.-46,0.5,0.4,0.-10,6.18,10.34,92532.92,758.95,0.0,0.0,0.0
2231,2,2231,0.-43,9.99,0.-7,0.2,0.17,0.-7,6.25,10.34,92537.28,758.66,0.0,0.0,0.0
2277,2,2277,0.0,9.96,0.7,0.2,0.3,0.-5,6.31,10.33,92527.47,759.34,0.0,0.0,0.0
2323,2,2323,0.19,10.1,0.-7,0.2,0.32,0.-8,6.25,10.34,92532.92,758.85,0.0,0.0,0.0
2371,2,2371,0.-31,10.7,0.-10,0.1,0.48,0.-9,6.25,10.33,92539.47,759.4,0.0,0.0,0.0
2417,2,2417,0.-48,10.2,0.-7,0.0,0.-3,0.-6,6.25,10.34,92543.85,757.97,0.0,0.0,0.0
2463,2,2463,0.-34,10.6,0.3,0.0,0.0,0.-4,6.18,10.34,92533.98,759.14,0.0,0.0,0.0
2509,2,2509,0.16,10.1,0.39,0.0,0.8,0.-5,6.25,10.34,92539.47,759.5,0.0,0.0,0.0
2555,2,2555,0.-7,10.0,0.44,0.2,0.-25,0.-6,6.25,10.34,92537.24,758.36,0.0,0.0,0.0
2601,2,2601,0.-33,10.7,0.38,0.4,0.-8,0.-6,6.25,10.34,92535.5,758.56,0.0,0.0,0.0
2647,2,2647,0.-14,10.1,0.-10,0.4,0.28,0.-7,6.25,10.34,92539.47,759.5,0.0,0.0,0.0
2690,2,2690,0.45,10.10,0.-36,0.3,0.18,0.-8,6.31,10.33,92538.40,758.95,0.0,0.0,0.0
2736,2,2736,0.22,9.99,0.-41,0.0,0.-18,0.-11,6.25,10.34,92533.98,759.14,0.0,0.0,0.0
2782,2,2782,0.-11,10.1,0.-35,0.-4,0.-2,0.-13,6.31,10.33,92535.10,758.66,0.0,0.0,0.0
2828,2,2828,0.-27,10.1,0.23,0.-6,0.-2,0.-13,6.31,10.34,92537.28,758.56,0.0,0.0,0.0
2874,2,2874,0.-57,9.95,0.59,0.-5,0.-21,0.-10,6.31,10.34,92540.50,759.5,0.0,0.0,0.0
2920,2,2920,0.-18,9.99,0.51,0.-2,0.-11,0.-9,6.37,10.33,92535.10,758.46,0.0,0.0,0.0
2963,2,2963,0.11,9.96,0.39,0.-1,0.-3,0.-10,6.31,10.34,92537.24,759.14,0.0,0.0,0.0
3009,2,3009,0.14,10.0,0.49,0.0,0.-8,0.-11,6.25,10.34,92535.5,758.86,0.0,0.0,0.0
3056,2,3056,0.-17,10.9,0.74,0.1,0.-7,0.-14,6.31,10.35,92532.86,758.95,0.0,0.0,0.0
3102,2,3102,0.-18,9.99,0.50,0.2,0.33,0.-15,6.37,10.35,92538.35,758.96,0.0,0.0,0.0
3148,2,3148,0.-19,10.5,0.41,0.3,0.39,0.-15,6.31,10.35,92529.61,758.56,0.0,0.0,0.0
3194,2,3194,0.-36,10.4,0.59,0.5,0.-7,0.-15,6.31,10.35,92533.98,759.45,0.0,0.0,0.0
3242,2,3242,0.-90,10.0,0.38,0.5,0.-8,0.-13,6.37,10.35,92535.5,758.37,0.0,0.0,0.0
3288,2,3288,0.-53,10.2,0.51,0.5,0.16,0.-10,6.37,10.35,92536.12,759.34,0.0,0.0,0.0
3334,2,3334,0.-44,9.99,0.39,0.6,0.6,0.-9,6.37,10.35,92538.25,758.76,0.0,0.0,0.0
3380,2,3380,0.-55,9.96,0.28,0.6,0.23,0.-8,6.31,10.35,92540.50,758.67,0.0,0.0,0.0
3426,2,3426,0.-17,10.2,0.48,0.7,0.26,0.-7,6.31,10.35,92540.44,759.5,0.0,0.0,0.0
3472,2,3472,0.-18,9.99,0.32,0.8,0.-17,0.-8,6.37,10.35,92539.37,759.5,0.0,0.0,0.0
3518,2,3518,0.-62,10.10,0.-25,0.8,0.31,0.-8,6.31,10.36,92537.19,758.47,0.0,0.0,0.0
3561,2,3561,0.-11,10.8,0.89,0.6,0.26,0.-8,6.37,10.36,92541.56,758.27,0.0,0.0,0.0
3607,2,3607,0.-18,10.13,0.74,0.9,0.-13,0.-7,6.31,10.35,92539.42,758.76,0.0,0.0,0.0
3653,2,3653,0.-42,9.99,0.59,0.12,0.-44,0.-8,6.31,10.35,92533.93,758.76,0.0,0.0,0.0
3699,2,3699,0.-69,10.1,0.24,0.13,0.-11,0.-7,6.37,10.35,92535.5,758.27,0.0,0.0,0.0
3745,2,3745,0.-18,10.4,0.3,0.13,0.6,0.-5,6.37,10.35,92538.31,758.8,0.0,0.0,0.0
3791,2,3791,0.16,9.98,0.2,0.13,0.-30,0.-7,6.37,10.36,92542.67,758.86,0.0,0.0,0.0
3834,2,3834,0.-34,10.2,0.-43,0.11,0.-47,0.-9,6.31,10.35,92537.24,758.36,0.0,0.0,0.0
3880,2,3880,0.-39,10.1,0.-34,0.8,0.-4,0.-8,6.31,10.35,92540.50,758.95,0.0,0.0,0.0
3926,2,3926,0.-42,10.0,0.-15,0.5,0.-19,0.-8,6.37,10.34,92541.56,759.25,0.0,0.0,0.0
3972,2,3972,0.-59,10.0,0.-25,0.4,0.-50,0.-7,6.31,10.35,92540.50,758.57,0.0,0.0,0.0
4018,2,4018,0.-45,9.99,0.-27,0.2,0.-17,0.-6,6.31,10.34,92539.42,759.34,0.0,0.0,0.0
4065,2,4065,0.-15,10.4,0.0,0.0,0.-29,0.-6,6.37,10.35,92540.50,758.76,0.0,0.0,0.0
4107,2,4107,0.-28,10.1,0.21,0.0,0.-57,0.-6,6.31,10.34,92536.12,759.5,0.0,0.0,0.0
4153,2,4153,0.-14,10.6,0.55,0.1,0.-16,0.-7,6.31,10.34,92537.24,759.15,0.0,0.0,0.0
4199,2,4199,0.6,10.3,0.67,0.4,0.-19,0.-8,6.31,10.35,92540.50,759.5,0.0,0.0,0.0
4245,2,4245,0.-45,10.2,0.23,0.8,0.-47,0.-10,6.31,10.35,92545.98,758.47,0.0,0.0,0.0
4291,2,4291,0.-21,10.2,0.14,0.8,0.-2,0.-9,6.31,10.34,92535.5,758.57,0.0,0.0,0.0
4337,2,4337,0.-41,10.0,0.-10,0.7,0.-5,0.-8,6.43,10.34,92537.24,758.86,0.0,0.0,0.0
4385,2,4385,0.-36,10.1,0.12,0.6,0.-10,0.-8,6.25,10.34,92531.80,758.65,0.0,0.0,0.0
4431,2,4431,0.-37,9.99,0.33,0.8,0.-15,0.-8,6.25,10.34,92528.50,758.85,0.0,0.0,0.0
4477,2,4477,0.-41,9.92,0.-9,0.8,0.-6,0.-7,6.31,10.34,92536.22,759.14,0.0,0.0,0.0
4523,2,4523,0.-6,10.1,0.1,0.7,0.-9,0.-7,6.37,10.34,92536.17,758.76,0.0,0.0,0.0
4569,2,4569,0.-27,9.98,0.7,0.8,0.-8,0.-8,6.37,10.34,92536.22,759.14,0.0,0.0,0.0
4615,2,4615,0.-17,10.5,0.-2,0.8,0.-7,0.-9,6.43,10.34,92539.42,758.85,0.0,0.0,0.0
4661,2,4661,0.-41,10.8,0.-29,0.8,0.-6,0.-9,6.37,10.34,92541.66,758.65,0.0,0.0,0.0
4704,2,4704,0.-13,10.5,0.-19,0.6,0.-8,0.-9,6.31,10.33,92542.78,758.75,0.0,0.0,0.0
4750,2,4750,0.-44,10.1,0.-30,0.5,0.-10,0.-10,6.31,10.34,92532.96,758.75,0.0,0.0,0.0
4796,2,4796,0.-22,10.4,0.-31,0.4,0.-10,0.-9,6.37,10.34,92540.54,758.26,0.0,0.0,0.0
4842,2,4842,0.-35,10.2,0.-36,0.3,0.-15,0.-9,6.43,10.34,92532.96,758.55,0.0,0.0,0.0
4888,2,4888,0.-41,9.98,0.-18,0.1,0.-17,0.-9,6.43,10.33,92537.28,758.36,0.0,0.0,0.0
4934,2,4934,0.-65,10.1,0.-43,0.0,0.-8,0.-8,6.37,10.35,92539.47,758.65,0.0,0.0,0.0
4977,2,4977,0.-7,9.98,0.-22,0.-1,0.-9,0.-7,6.43,10.33,92535.10,758.75,0.0,0.0,0.0
5023,2,5023,0.-27,9.98,0.11,0.-2,0.-10,0.-9,6.43,10.34,92541.61,758.66,0.0,0.0,0.0
5070,2,5070,0.-15,10.6,0.38,0.-1,0.-9,0.-10,6.43,10.33,92536.17,758.65,0.0,0.0,0.0
5116,2,5116,0.-16,10.4,0.29,0.0,0.-2,0.-11,6.37,10.34,92535.10,758.75,0.0,0.0,0.0
5162,2,5162,0.-38,10.4,0.0,0.1,0.0,0.-12,6.50,10.35,92539.47,758.94,0.0,0.0,0.0
5208,2,5208,0.-69,10.4,0.-10,0.0,0.-4,0.-11,6.50,10.34,92547.5,758.76,0.0,0.0,0.0
5251,2,5251,0.-70,10.0,0.32,0.0,0.-5,0.-9,6.37,10.34,92541.66,758.76,0.0,0.0,0.0
5297,2,5297,0.-55,9.99,0.24,0.0,0.0,0.-7,6.37,10.35,92538.35,758.66,0.0,0.0,0.0
5343,2,5343,0.0,10.1,0.17,0.1,0.11,0.-7,6.43,10.34,92540.54,758.46,0.0,0.0,0.0
5389,2,5389,0.-18,9.95,0.27,0.1,0.0,0.-8,6.31,10.34,92548.17,758.75,0.0,0.0,0.0
5435,2,5435,0.-37,10.7,0.20,0.2,0.7,0.-9,6.43,10.35,92533.98,759.5,0.0,0.0,0.0
5481,2,5481,0.-12,9.92,0.20,0.1,0.-2,0.-8,6.43,10.34,92538.35,758.85,0.0,0.0,0.0
5527,2,5529,0.-44,9.98,0.47,0.2,0.-11,0.-8,6.43,10.33,92539.52,758.85,0.0,0.0,0.0
5570,2,5570,0.-33,10.3,0.28,0.4,0.6,0.-9,6.43,10.34,92538.40,758.85,0.0,0.0,0.0
5616,2,5616,0.-28,10.1,0.21,0.4,0.8,0.-9,6.43,10.34,92540.54,758.56,0.0,0.0,0.0
5662,2,5662,0.-46,10.3,0.25,0.4,0.-11,0.-9,6.43,10.34,92538.35,758.46,0.0,0.0,0.0
5708,2,5708,0.-39,10.1,0.25,0.5,0.-8,0.-8,6.43,10.35,92538.35,759.5,0.0,0.0,0.0
5754,2,5754,0.-71,9.94,0.25,0.5,0.-4,0.-8,6.43,10.34,92539.47,758.66,0.0,0.0,0.0
5800,2,5800,0.-33,10.3,0.6,0.5,0.9,0.-7,6.37,10.33,92540.59,757.97,0.0,0.0,0.0
5843,2,5843,0.-27,10.45,0.7,0.4,0.-4,0.-8,6.43,10.34,92536.22,758.26,0.0,0.0,0.0
5889,2,5889,0.-60,9.72,0.32,0.6,0.-9,0.-8,6.50,10.33,92531.85,758.95,0.0,0.0,0.0
5935,2,5935,0.-42,10.12,0.12,0.5,0.0,0.-7,6.43,10.33,92539.47,758.85,0.0,0.0,0.0
5981,2,5981,0.-30,10.5,0.-5,0.5,0.-14,0.-7,6.50,10.34,92529.66,758.36,0.0,0.0,0.0
6027,2,6027,0.-34,10.3,0.-17,0.4,0.-15,0.-8,6.37,10.33,92529.71,758.46,0.0,0.0,0.0
6074,2,6074,0.78,10.8,0.32,0.4,0.-12,0.-9,6.50,10.34,92537.28,758.46,0.0,0.0,0.0
6116,2,6116,0.-50,10.0,0.22,0.4,0.-13,0.-9,6.37,10.33,92532.92,758.17,0.0,0.0,0.0
6162,2,6162,0.-67,9.99,0.23,0.5,0.-8,0.-7,6.43,10.34,92537.28,759.34,0.0,0.0,0.0
6208,2,6208,0.-30,9.88,0.18,0.6,0.-10,0.-7,6.43,10.34,92530.67,759.5,0.0,0.0,0.0
6254,2,6254,0.-13,10.0,0.6,0.5,0.-16,0.-8,6.37,10.34,92536.17,758.76,0.0,0.0,0.0
6300,2,6300,0.-22,9.97,0.38,0.6,0.-7,0.-10,6.37,10.34,92537.24,758.76,0.0,0.0,0.0
6346,2,6346,0.-17,10.37,0.34,0.0,0.-5,0.-11,6.43,10.34,92532.86,758.26,0.0,0.0,0.0
6394,2,6394,0.-77,10.21,0.46,0.6,0.-8,0.-8,6.37,10.34,92538.35,758.95,0.0,0.0,0.0
6440,2,6440,0.-39,10.1,0.28,0.6,0.2,0.-7,6.43,10.33,92541.61,759.5,0.0,0.0,0.0
6486,2,6486,0.-33,10.7,0.-13,0.7,0.-9,0.-7,6.43,10.34,92535.10,758.46,0.0,0.0,0.0
6532,2,6532,0.-62,9.98,0.8,0.7,0.-10,0.-5,6.50,10.35,92536.17,758.75,0.0,0.0,0.0
6578,2,6578,0.-46,9.96,0.46,0.8,0.-9,0.-5,6.43,10.34,92538.35,758.17,0.0,0.0,0.0
6624,2,6624,0.-25,10.7,0.28,0.9,0.0,0.-5,6.43,10.34,92533.98,758.46,0.0,0.0,0.0
6670,2,6670,0.-39,10.0,0.-87,0.6,0.5,0.-2,6.37,10.33,92541.66,759.53,0.0,0.0,0.0
6713,2,6713,0.-6,10.12,0.-61,0.5,0.-10,0.-5,6.50,10.34,92535.10,758.75,0.0,0.0,0.0
6759,2,6759,0.8,9.93,1.52,0.15,0.-33,0.-10,6.43,10.33,92532.96,758.26,0.0,0.0,0.0
6805,2,6805,0.-27,9.95,0.23,0.6,0.-5,0.-7,6.50,10.34,92535.10,758.26,0.0,0.0,0.0
6851,2,6851,0.-30,10.6,0.-31,0.8,0.-8,0.-9,6.50,10.34,92537.28,758.66,0.0,0.0,0.0
6897,2,6897,0.-13,10.2,0.-31,0.6,0.-16,0.-10,6.50,10.33,92531.85,758.95,0.0,0.0,0.0
6943,2,6943,0.-24,10.7,0.-12,0.5,0.-21,0.-12,6.50,10.34,92537.28,759.24,0.0,0.0,0.0
6986,2,6986,0.-32,10.3,0.-6,0.5,0.-10,0.-12,6.31,10.33,92537.34,758.75,0.0,0.0,0.0
7032,2,7032,0.-55,9.99,0.4,0.5,0.-12,0.-11,6.50,10.34,92541.66,758.75,0.0,0.0,0.0
7079,2,7079,0.-85,9.93,0.0,0.6,0.-7,0.-10,6.50,10.33,92538.40,758.56,0.0,0.0,0.0
7125,2,7125,0.-58,9.97,0.0,0.6,0.-9,0.-8,6.37,10.33,92539.47,758.75,0.0,0.0,0.0
7171,2,7171,0.-57,10.4,0.1,0.6,0.-9,0.-6,6.43,10.33,92540.59,759.5,0.0,0.0,0.0
7217,2,7217,0.-33,9.96,0.7,0.7,0.-9,0.-6,6.43,10.33,92532.92,758.75,0.0,0.0,0.0
7265,2,7265,0.-23,9.98,0.5,0.9,0.-10,0.-6,6.56,10.34,92536.22,758.56,0.0,0.0,0.0
7311,2,7311,0.-3,10.2,0.-22,0.9,0.-6,0.-7,6.43,10.33,92540.54,758.85,0.0,0.0,0.0
7357,2,7357,0.-30,9.97,0.-47,0.7,0.-10,0.-8,6.37,10.34,92541.66,758.46,0.0,0.0,0.0
7403,2,7403,0.1,9.80,0.-48,0.5,0.-5,0.-9,6.43,10.33,92536.17,758.56,0.0,0.0,0.0
7449,2,7449,0.-21,9.86,0.-19,0.4,0.-12,0.-10,6.43,10.34,92538.35,758.75,0.0,0.0,0.0
7495,2,7495,0.-81,9.98,0.-18,0.5,0.-26,0.-9,6.43,10.33,92537.28,758.46,0.0,0.0,0.0
7541,2,7543,0.-78,9.99,0.-25,0.4,0.-19,0.-7,6.43,10.33,92540.59,759.24,0.0,0.0,0.0
7584,2,7584,0.-39,10.1,0.-34,0.3,0.-7,0.-5,6.43,10.33,92538.40,758.95,0.0,0.0,0.0
7630,2,7630,0.-40,10.1,0.-25,0.2,0.-15,0.-5,6.50,10.33,92530.78,758.95,0.0,0.0,0.0
7676,2,7676,0.-29,10.4,0.-3,0.2,0.-39,0.-4,6.43,10.33,92540.59,758.46,0.0,0.0,0.0
7722,2,7722,0.-11,10.0,0.-9,0.3,0.-16,0.-5,6.56,10.34,92535.5,759.24,0.0,0.0,0.0
7768,2,7768,0.-10,10.1,0.-5,0.3,0.-20,0.-6,6.43,10.33,92541.66,758.46,0.0,0.0,0.0
7814,2,7814,0.-15,9.98,0.-31,0.3,0.-32,0.-8,6.43,10.33,92536.22,758.65,0.0,0.0,0.0
7857,2,7857,0.-9,10.6,0.-51,0.2,0.-14,0.-9,6.50,10.33,92534.3,758.75,0.0,0.0,0.0
7903,2,7903,0.1,9.98,0.-60,0.-1,0.-9,0.-10,6.50,10.34,92537.28,758.65,0.0,0.0,0.0
7949,2,7949,0.-55,9.89,0.-31,0.-4,0.-28,0.-11,6.43,10.34,92526.41,758.94,0.0,0.0,0.0
7995,2,7995,0.-62,10.0,0.-5,0.-5,0.-19,0.-10,6.50,10.33,92533.98,759.44,0.0,0.0,0.0
8041,2,8041,0.-66,10.0,0.0,0.-5,0.-16,0.-7,6.43,10.34,92535.15,759.24,0.0,0.0,0.0
8088,2,8088,0.-67,9.99,0.1,0.-4,0.-23,0.-5,6.43,10.33,92537.28,759.24,0.0,0.0,0.0
8130,2,8130,0.-72,9.90,0.-4,0.-5,0.-15,0.-3,6.50,10.33,92538.40,758.75,0.0,0.0,0.0
8176,2,8176,0.-26,10.4,0.11,0.-5,0.-3,0.-2,6.43,10.33,92529.71,759.24,0.0,0.0,0.0
8222,2,8222,0.-28,10.3,0.22,0.-6,0.3,0.-1,6.43,10.33,92541.66,758.94,0.0,0.0,0.0
8268,2,8268,0.-10,10.1,0.55,0.-5,0.-2,0.-1,6.50,10.33,92530.78,759.4,0.0,0.0,0.0
8314,2,8314,0.4,9.93,0.58,0.-3,0.-16,0.-2,6.43,10.33,92530.78,759.24,0.0,0.0,0.0
8360,2,8360,0.0,10.1,0.48,0.-2,0.-7,0.-3,6.43,10.33,92532.96,758.46,0.0,0.0,0.0
8408,2,8408,0.36,10.0,0.34,0.-1,0.4,0.-6,6.43,10.34,92537.34,758.56,0.0,0.0,0.0
8454,2,8454,0.9,10.6,0.45,0.-1,0.-1,0.-9,6.50,10.33,92535.15,758.65,0.0,0.0,0.0
8500,2,8500,0.-2,9.96,0.49,0.0,0.-12,0.-10,6.43,10.33,92538.40,758.95,0.0,0.0,0.0
8546,2,8546,0.-32,10.1,0.62,0.0,0.-11,0.-10,6.43,10.33,92533.98,758.85,0.0,0.0,0.0
8592,2,8592,0.-26,10.4,0.45,0.1,0.-9,0.-9,6.43,10.33,92528.59,758.46,0.0,0.0,0.0
8638,2,8638,0.-30,9.97,0.62,0.1,0.-9,0.-8,6.50,10.34,92536.22,759.54,0.0,0.0,0.0
8684,2,8684,0.-27,10.13,0.55,0.2,0.13,0.-7,6.50,10.33,92540.59,759.24,0.0,0.0,0.0
8727,2,8727,0.-23,9.99,0.50,0.2,0.14,0.-7,6.50,10.33,92534.3,759.4,0.0,0.0,0.0
8773,2,8773,0.-39,9.94,0.40,0.3,0.-13,0.-6,6.50,10.33,92532.96,758.56,0.0,0.0,0.0
8819,2,8819,0.-28,9.98,0.66,0.3,0.-13,0.-4,6.50,10.33,92532.92,758.65,0.0,0.0,0.0
8865,2,8865,0.-2,9.99,0.59,0.5,0.-4,0.-4,6.37,10.33,92531.85,759.53,0.0,0.0,0.0
8911,2,8911,0.3,10.5,0.54,0.5,0.-8,0.-5,6.43,10.33,92532.92,759.54,0.0,0.0,0.0
8957,2,8957,0.-3,9.98,0.54,0.6,0.-5,0.-5,6.43,10.34,92531.85,758.85,0.0,0.0,0.0
9000,2,9000,0.-10,9.99,0.60,0.7,0.-9,0.-6,6.50,10.33,92531.85,759.14,0.0,0.0,0.0
9046,2,9046,0.-3,10.4,0.41,0.8,0.-7,0.-6,6.43,10.33,92532.92,759.34,0.0,0.0,0.0
9093,2,9093,0.6,10.5,0.19,0.7,0.-8,0.-7,6.50,10.33,92537.34,759.24,0.0,0.0,0.0
9139,2,9139,0.-6,10.3,0.28,0.5,0.-8,0.-7,6.50,10.33,92536.17,758.85,0.0,0.0,0.0
9185,2,9185,0.22,9.99,0.34,0.5,0.-9,0.-8,6.50,10.34,92534.3,758.94,0.0,0.0,0.0
9231,2,9231,0.9,9.95,0.38,0.5,0.-10,0.-9,6.50,10.33,92531.85,759.4,0.0,0.0,0.0
9279,2,9279,0.-4,10.4,0.32,0.5,0.-8,0.-9,6.50,10.33,92534.3,759.24,0.0,0.0,0.0
9325,2,9325,0.-18,10.1,0.35,0.4,0.-12,0.-10,6.50,10.34,92537.34,759.24,0.0,0.0,0.0
9371,2,9371,0.-11,10.4,0.57,0.5,0.-9,0.-9,6.50,10.34,92536.22,758.46,0.0,0.0,0.0
9417,2,9417,0.-18,10.4,0.39,0.5,0.-8,0.-8,6.56,10.33,92528.64,758.95,0.0,0.0,0.0
9463,2,9463,0.8,10.7,0.45,0.6,0.-9,0.-9,6.56,10.33,92535.10,758.75,0.0,0.0,0.0
9509,2,9509,0.4,10.2,0.43,0.6,0.-11,0.-10,6.43,10.33,92532.92,759.34,0.0,0.0,0.0
9555,2,9555,0.1,10.9,0.23,0.6,0.-5,0.-10,6.50,10.33,92536.76,759.19,0.0,0.0,0.0
9787,2,9787,0.-19,10.14,0.11,0.3,0.-8,0.-8,6.50,10.25,92538.85,759.10,0.0,0.0,0.0
9833,2,9833,0.-19,10.2,0.19,0.2,0.-9,0.-8,6.50,10.27,92534.38,758.73,0.0,0.0,0.0
9879,2,9879,0.-46,9.93,0.34,0.1,0.-9,0.-7,6.43,10.29,92535.35,758.93,0.0,0.0,0.0
9925,2,9925,0.16,10.2,0.55,0.2,0.-4,0.-8,6.56,10.30,92540.74,758.84,0.0,0.0,0.0
9971,2,9971,0.-19,10.3,0.42,0.3,0.-15,0.-9,6.50,10.32,92541.76,758.74,0.0,0.0,0.0
10017,2,10017,0.3,10.9,0.50,0.3,0.-15,0.-9,6.56,10.31,92540.25,758.78,0.0,0.0,0.0
11474,2,11474,0.-33,10.10,0.22,0.3,0.-14,0.-9,6.50,10.18,92533.75,758.69,0.0,0.0,0.0
11520,2,11520,0.-31,9.94,0.22,0.3,0.-16,0.-8,6.50,10.21,92544.43,758.60,0.0,0.0,0.0
11566,2,11566,0.-34,10.4,0.44,0.3,0.-9,0.-8,6.56,10.25,92536.61,759.1,0.0,0.0,0.0
11612,2,11612,0.-28,10.4,0.38,0.4,0.-11,0.-7,6.50,10.27,92534.38,759.21,0.0,0.0,0.0
11658,2,11658,0.-25,9.89,0.42,0.4,0.-5,0.-7,6.56,10.29,92536.46,758.63,0.0,0.0,0.0
11704,2,11704,0.0,9.97,0.34,0.5,0.-5,0.-7,6.50,10.30,92537.49,758.74,0.0,0.0,0.0
11747,2,11747,0.-11,9.98,0.25,0.5,0.-14,0.-8,6.56,10.31,92537.49,759.13,0.0,0.0,0.0
11793,2,11793,0.-20,10.9,0.26,0.4,0.-7,0.-8,6.50,10.32,92540.69,758.45,0.0,0.0,0.0
11839,2,11839,0.-26,9.93,0.22,0.4,0.-11,0.-9,6.50,10.32,92540.69,758.94,0.0,0.0,0.0
11885,2,11885,0.-31,10.3,0.28,0.4,0.-10,0.-8,6.43,10.32,92534.13,759.14,0.0,0.0,0.0
11931,2,11931,0.-26,9.98,0.30,0.4,0.-8,0.-7,6.50,10.32,92534.13,758.84,0.0,0.0,0.0
11977,2,11977,0.-25,10.1,0.28,0.4,0.-8,0.-7,6.50,10.32,92537.39,758.74,0.0,0.0,0.0
12025,2,12025,0.-6,10.4,0.28,0.3,0.-11,0.-7,6.50,10.32,92535.20,758.65,0.0,0.0,0.0
12071,2,12071,0.-13,9.98,0.28,0.3,0.-12,0.-8,6.50,10.33,92526.46,759.23,0.0,0.0,0.0
12117,2,12117,0.-11,9.95,0.33,0.3,0.-10,0.-8,6.50,10.31,92537.39,758.55,0.0,0.0,0.0
12163,2,12163,0.-22,10.1,0.38,0.3,0.-12,0.-9,6.50,10.33,92538.40,758.65,0.0,0.0,0.0
12209,2,12209,0.-27,9.98,0.40,0.3,0.-9,0.-9,6.56,10.32,92541.71,758.75,0.0,0.0,0.0
12255,2,12255,0.-24,10.1,0.30,0.3,0.-8,0.-8,6.62,10.32,92537.34,758.94,0.0,0.0,0.0
12303,2,12303,0.-17,10.7,0.33,0.3,0.-11,0.-8,6.56,10.32,92535.20,759.14,0.0,0.0,0.0
12349,2,12349,0.-18,10.3,0.35,0.3,0.-13,0.-9,6.62,10.32,92537.34,758.65,0.0,0.0,0.0
12395,2,12395,0.-19,10.4,0.35,0.3,0.-8,0.-9,6.62,10.33,92530.83,759.4,0.0,0.0,0.0
12441,2,12441,0.-21,10.4,0.37,0.4,0.-6,0.-9,6.56,10.32,92540.64,758.75,0.0,0.0,0.0
12488,2,12488,0.-41,9.97,0.45,0.4,0.-13,0.-9,6.56,10.33,92539.47,758.94,0.0,0.0,0.0
12534,2,12534,0.-40,10.1,0.47,0.5,0.-10,0.-7,6.50,10.32,92535.15,758.94,0.0,0.0,0.0
12580,2,12582,0.-25,10.40,0.27,0.6,0.-6,0.-6,6.56,10.31,92534.8,759.33,0.0,0.0,0.0
12623,2,12623,0.-18,10.27,0.25,0.6,0.-6,0.-7,6.62,10.33,92538.46,759.4,0.0,0.0,0.0
12669,2,12669,0.-22,10.3,0.26,0.6,0.-5,0.-7,6.56,10.33,92536.32,758.65,0.0,0.0,0.0
12715,2,12715,0.6,10.5,0.20,0.5,0.-3,0.-8,6.50,10.32,92534.8,759.23,0.0,0.0,0.0
12761,2,12761,0.16,9.99,0.30,0.5,0.-11,0.-10,6.56,10.32,92536.27,758.65,0.0,0.0,0.0
12807,2,12807,0.1,10.4,0.36,0.5,0.-24,0.-11,6.62,10.32,92539.52,757.96,0.0,0.0,0.0
12853,2,12853,0.-10,10.1,0.28,0.6,0.-20,0.-12,6.56,10.33,92538.46,758.26,0.0,0.0,0.0
12896,2,12896,0.-7,10.1,0.48,0.6,0.-6,0.-14,6.56,10.31,92533.1,759.23,0.0,0.0,0.0
12942,2,12942,0.-47,10.2,0.9,0.7,0.-25,0.-14,6.50,10.32,92537.39,758.74,0.0,0.0,0.0
12988,2,12988,0.-51,10.5,0.14,0.5,0.-22,0.-12,6.56,10.32,92537.34,758.65,0.0,0.0,0.0
13034,2,13034,0.-58,9.97,0.55,0.5,0.-28,0.-10,6.62,10.33,92538.46,758.75,0.0,0.0,0.0
13080,2,13080,0.-74,9.97,0.26,0.7,0.-34,0.-8,6.56,10.31,92536.27,758.65,0.0,0.0,0.0
13126,2,13126,0.-11,10.10,0.17,0.6,0.4,0.-7,6.56,10.33,92531.95,758.94,0.0,0.0,0.0
13169,2,13169,0.3,10.4,0.19,0.6,0.-9,0.-8,6.50,10.32,92539.57,759.72,0.0,0.0,0.0
13215,2,13215,0.-26,10.4,0.21,0.5,0.-19,0.-10,6.56,10.33,92537.39,759.23,0.0,0.0,0.0
13261,2,13261,0.-16,10.4,0.36,0.5,0.-4,0.-10,6.56,10.33,92537.39,758.65,0.0,0.0,0.0
13307,2,13307,0.-25,10.4,0.32,0.7,0.-21,0.-11,6.56,10.33,92542.82,758.65,0.0,0.0,0.0
13353,2,13353,0.-52,10.4,0.25,0.7,0.-10,0.-11,6.50,10.32,92536.27,758.94,0.0,0.0,0.0
13399,2,13399,0.-55,10.4,0.30,0.7,0.-12,0.-9,6.56,10.33,92535.25,759.33,0.0,0.0,0.0
13442,2,13442,0.-86,9.97,0.24,0.8,0.-8,0.-7,6.62,10.33,92542.82,758.74,0.0,0.0,0.0
13489,2,13489,0.-61,9.98,0.33,0.9,0.-9,0.-5,6.50,10.32,92536.32,758.55,0.0,0.0,0.0
13535,2,13535,0.-19,10.1,0.23,0.10,0.-27,0.-4,6.50,10.32,92540.64,759.24,0.0,0.0,0.0
13581,2,13581,0.-12,10.0,0.-3,0.11,0.-15,0.-5,6.62,10.31,92537.34,758.84,0.0,0.0,0.0
13627,2,13627,0.-6,10.1,0.-15,0.10,0.-7,0.-7,6.62,10.33,92534.13,759.4,0.0,0.0,0.0
13673,2,13673,0.-19,10.8,0.-17,0.8,0.-15,0.-7,6.56,10.32,92541.76,758.6,0.0,0.0,0.0
13716,2,13716,0.-10,10.7,0.-15,0.7,0.-7,0.-8,6.56,10.32,92536.27,758.84,0.0,0.0,0.0
13762,2,13762,0.-4,9.95,0.-10,0.6,0.-10,0.-10,6.56,10.33,92537.34,759.33,0.0,0.0,0.0
13808,2,13808,0.-24,10.0,0.0,0.5,0.-11,0.-11,6.50,10.32,92543.94,758.84,0.0,0.0,0.0
13854,2,13854,0.-23,10.7,0.11,0.6,0.-14,0.-11,6.50,10.32,92538.46,758.26,0.0,0.0,0.0
13900,2,13900,0.-53,9.94,0.-6,0.6,0.-25,0.-11,6.56,10.32,92543.89,759.4,0.0,0.0,0.0
13946,2,13946,0.-49,10.1,0.2,0.5,0.-17,0.-9,6.56,10.33,92547.15,758.75,0.0,0.0,0.0
13989,2,13989,0.-33,10.2,0.1,0.5,0.-9,0.-8,6.50,10.33,92541.71,758.65,0.0,0.0,0.0
14035,2,14035,0.-32,9.98,0.2,0.6,0.-9,0.-8,6.56,10.32,92542.82,758.26,0.0,0.0,0.0
14081,2,14081,0.-24,10.2,0.-5,0.6,0.-15,0.-8,6.56,10.32,92533.1,758.36,0.0,0.0,0.0
14127,2,14127,0.-32,10.2,0.-20,0.5,0.-8,0.-8,6.50,10.32,92540.64,758.55,0.0,0.0,0.0
14173,2,14173,0.-28,10.0,0.-17,0.5,0.-8,0.-8,6.50,10.32,92539.57,757.96,0.0,0.0,0.0
14219,2,14219,0.-30,10.3,0.-23,0.4,0.-8,0.-8,6.56,10.33,92542.82,759.24,0.0,0.0,0.0
14267,2,14267,0.-24,10.11,0.-17,0.3,0.-10,0.-9,6.56,10.32,92538.46,758.45,0.0,0.0,0.0
14313,2,14313,0.-38,9.84,0.-13,0.2,0.-13,0.-8,6.50,10.33,92538.46,758.94,0.0,0.0,0.0
14359,2,14359,0.-33,9.97,0.-8,0.2,0.-13,0.-8,6.50,10.31,92538.50,758.26,0.0,0.0,0.0
14405,2,14405,0.-22,9.97,0.-4,0.2,0.-11,0.-8,6.56,10.32,92538.46,758.84,0.0,0.0,0.0
14451,2,14451,0.-22,10.8,0.0,0.2,0.-14,0.-8,6.56,10.33,92540.64,758.55,0.0,0.0,0.0
14498,2,14498,0.-26,10.12,0.16,0.2,0.-12,0.-10,6.56,10.32,92540.64,758.74,0.0,0.0,0.0
14546,2,14546,0.-37,9.95,0.12,0.3,0.-13,0.-9,6.50,10.31,92536.32,758.25,0.0,0.0,0.0
14592,2,14592,0.-19,10.7,0.3,0.3,0.-8,0.-8,6.62,10.32,92536.27,758.26,0.0,0.0,0.0
14638,2,14638,0.-36,9.93,0.-1,0.4,0.-9,0.-9,6.62,10.32,92535.20,757.87,0.0,0.0,0.0
14684,2,14684,0.-5,10.16,0.7,0.3,0.-9,0.-9,6.56,10.33,92536.32,759.14,0.0,0.0,0.0
14730,2,14730,0.-44,10.1,0.-10,0.3,0.-12,0.-10,6.56,10.32,92539.57,758.26,0.0,0.0,0.0
14776,2,14776,0.-46,9.97,0.-10,0.3,0.-15,0.-10,6.56,10.32,92538.46,758.65,0.0,0.0,0.0
14824,2,14824,0.-45,9.96,0.-1,0.2,0.-9,0.-9,6.56,10.32,92540.69,759.42,0.0,0.0,0.0
14870,2,14870,0.-29,10.1,0.4,0.2,0.-10,0.-8,6.56,10.33,92537.39,758.84,0.0,0.0,0.0
14916,2,14916,0.-31,10.10,0.14,0.2,0.-10,0.-8,6.56,10.32,92539.57,758.35,0.0,0.0,0.0
14962,2,14962,0.-41,9.91,0.-1,0.2,0.-10,0.-9,6.56,10.32,92545.1,758.74,0.0,0.0,0.0
15008,2,15008,0.-44,10.3,0.5,0.2,0.-16,0.-8,6.56,10.33,92535.20,758.36,0.0,0.0,0.0
15054,2,15054,0.-30,9.98,0.8,0.2,0.-7,0.-8,6.56,10.31,92535.20,758.84,0.0,0.0,0.0
15100,2,15100,0.-34,10.1,0.17,0.2,0.-9,0.-8,6.56,10.33,92538.50,758.93,0.0,0.0,0.0
15143,2,15143,0.-33,10.14,0.24,0.3,0.-10,0.-8,6.56,10.31,92534.13,758.65,0.0,0.0,0.0
15189,2,15189,0.-45,9.96,0.3,0.3,0.-9,0.-8,6.56,10.32,92547.20,758.65,0.0,0.0,0.0
15235,2,15235,0.-30,10.10,0.19,0.3,0.-9,0.-8,6.62,10.32,92529.76,757.96,0.0,0.0,0.0
15281,2,15281,0.-32,9.93,0.11,0.4,0.-10,0.-9,6.56,10.32,92539.57,758.74,0.0,0.0,0.0
15327,2,15327,0.-34,10.8,0.10,0.3,0.-8,0.-8,6.50,10.32,92537.34,758.94,0.0,0.0,0.0
15373,2,15373,0.-42,10.0,0.8,0.3,0.-9,0.-8,6.62,10.32,92539.57,758.55,0.0,0.0,0.0
15416,2,15416,0.-39,10.2,0.15,0.4,0.-9,0.-8,6.56,10.33,92536.27,758.45,0.0,0.0,0.0
15462,2,15462,0.-27,10.1,0.17,0.4,0.-9,0.-7,6.56,10.32,92535.20,758.55,0.0,0.0,0.0
15509,2,15509,0.-25,9.98,0.22,0.4,0.-9,0.-7,6.56,10.32,92542.82,758.75,0.0,0.0,0.0
15555,2,15555,0.-34,10.6,0.12,0.5,0.-9,0.-8,6.56,10.33,92533.1,759.4,0.0,0.0,0.0
15601,2,15601,0.-37,9.99,0.1,0.4,0.-9,0.-8,6.56,10.33,92536.22,759.4,0.0,0.0,0.0
15647,2,15647,0.-45,10.2,0.7,0.4,0.-10,0.-7,6.56,10.33,92541.71,758.36,0.0,0.0,0.0
15690,2,15690,0.-45,10.5,0.3,0.4,0.-10,0.-7,6.56,10.33,92538.46,758.45,0.0,0.0,0.0
15736,2,15736,0.-24,10.1,0.0,0.3,0.-11,0.-7,6.50,10.32,92539.52,758.75,0.0,0.0,0.0
15782,2,15782,0.-12,10.8,0.19,0.3,0.-10,0.-7,6.50,10.33,92543.89,758.65,0.0,0.0,0.0
15828,2,15828,0.-25,9.98,0.20,0.3,0.-11,0.-8,6.56,10.32,92538.46,758.55,0.0,0.0,0.0
15874,2,15874,0.-24,9.97,0.24,0.4,0.-9,0.-8,6.56,10.32,92539.52,759.24,0.0,0.0,0.0
15920,2,15920,0.-40,9.97,0.0,0.5,0.-8,0.-8,6.56,10.32,92540.59,758.46,0.0,0.0,0.0
15963,2,15963,0.-41,10.2,0.3,0.4,0.-8,0.-8,6.62,10.33,92539.52,758.26,0.0,0.0,0.0
16009,2,16009,0.-16,10.3,0.11,0.4,0.-9,0.-8,6.62,10.32,92540.64,758.75,0.0,0.0,0.0
16055,2,16055,0.-23,9.99,0.20,0.4,0.-9,0.-8,6.62,10.33,92537.34,758.46,0.0,0.0,0.0
16101,2,16101,0.-45,10.4,0.22,0.5,0.-9,0.-9,6.62,10.32,92547.20,758.84,0.0,0.0,0.0
16147,2,16147,0.-37,10.3,0.19,0.5,0.-9,0.-8,6.56,10.33,92536.27,759.4,0.0,0.0,0.0
16193,2,16193,0.-22,10.3,0.3,0.5,0.-8,0.-7,6.50,10.33,92532.96,758.65,0.0,0.0,0.0
16241,2,16241,0.-19,10.7,0.0,0.5,0.-8,0.-8,6.62,10.33,92542.78,758.84,0.0,0.0,0.0
16287,2,16287,0.-29,10.0,0.-8,0.4,0.-9,0.-9,6.62,10.33,92534.8,758.65,0.0,0.0,0.0
16333,2,16333,0.-35,10.2,0.1,0.3,0.-10,0.-9,6.56,10.33,92533.1,758.65,0.0,0.0,0.0
16379,2,16379,0.-56,10.0,0.15,0.4,0.-14,0.-8,6.56,10.32,92528.64,758.84,0.0,0.0,0.0
16425,2,16425,0.-42,9.98,0.3,0.3,0.-11,0.-7,6.56,10.33,92540.64,759.4,0.0,0.0,0.0
16471,2,16471,0.-23,10.9,0.0,0.3,0.-9,0.-7,6.56,10.33,92534.8,759.24,0.0,0.0,0.0
16518,2,16520,0.-18,10.3,0.8,0.3,0.-9,0.-8,6.56,10.33,92537.39,758.16,0.0,0.0,0.0
16560,2,16560,0.-21,10.0,0.17,0.3,0.-13,0.-9,6.56,10.32,92538.50,758.74,0.0,0.0,0.0
16606,2,16606,0.-49,10.2,0.11,0.3,0.-11,0.-9,6.50,10.32,92538.50,758.26,0.0,0.0,0.0
16652,2,16652,0.-30,10.3,0.13,0.3,0.-10,0.-8,6.50,10.33,92538.46,758.74,0.0,0.0,0.0
16698,2,16698,0.-40,10.2,0.3,0.3,0.-9,0.-8,6.56,10.32,92535.15,758.55,0.0,0.0,0.0
16744,2,16744,0.-39,9.97,0.-12,0.2,0.-8,0.-7,6.56,10.32,92542.82,758.93,0.0,0.0,0.0
16790,2,16790,0.-17,10.1,0.19,0.1,0.-10,0.-7,6.62,10.31,92536.32,758.64,0.0,0.0,0.0
16833,2,16833,0.-26,10.6,0.21,0.2,0.-10,0.-8,6.56,10.32,92538.50,758.93,0.0,0.0,0.0
16879,2,16879,0.-32,10.4,0.24,0.2,0.-9,0.-8,6.56,10.31,92536.32,759.4,0.0,0.0,0.0
16925,2,16925,0.-36,10.4,0.22,0.3,0.-9,0.-8,6.50,10.32,92535.20,758.84,0.0,0.0,0.0
16971,2,16971,0.-24,10.2,0.26,0.3,0.-8,0.-8,6.62,10.31,92537.39,759.33,0.0,0.0,0.0
17017,2,17017,0.-29,10.3,0.21,0.4,0.-8,0.-9,6.56,10.33,92533.1,758.74,0.0,0.0,0.0
17063,2,17063,0.-25,10.1,0.12,0.4,0.-9,0.-9,6.56,10.33,92534.13,759.4,0.0,0.0,0.0
17106,2,17106,0.-38,10.2,0.16,0.3,0.-9,0.-9,6.56,10.32,92545.1,758.84,0.0,0.0,0.0
17152,2,17152,0.-44,10.15,0.26,0.4,0.-8,0.-8,6.56,10.31,92538.50,759.4,0.0,0.0,0.0
17198,2,17198,0.-36,9.96,0.25,0.5,0.-9,0.-9,6.50,10.32,92539.57,758.45,0.0,0.0,0.0
17244,2,17244,0.-37,10.0,0.14,0.5,0.-7,0.-8,6.56,10.32,92536.27,758.65,0.0,0.0,0.0
17290,2,17290,0.-29,10.2,0.16,0.4,0.-8,0.-7,6.56,10.32,92537.39,759.24,0.0,0.0,0.0
17336,2,17336,0.-22,10.3,0.19,0.4,0.-9,0.-8,6.62,10.32,92546.13,758.35,0.0,0.0,0.0
17379,2,17379,0.-23,10.2,0.16,0.4,0.-8,0.-8,6.56,10.32,92536.32,758.84,0.0,0.0,0.0
17425,2,17425,0.-25,10.2,0.7,0.4,0.-8,0.-8,6.56,10.32,92531.95,758.55,0.0,0.0,0.0
17471,2,17471,0.-33,10.5,0.1,0.3,0.-9,0.-9,6.50,10.32,92537.34,758.55,0.0,0.0,0.0
17518,2,17518,0.-20,10.2,0.20,0.2,0.-10,0.-9,6.62,10.32,92537.39,758.74,0.0,0.0,0.0
17564,2,17564,0.-33,10.2,0.21,0.3,0.-9,0.-10,6.56,10.33,92535.20,759.43,0.0,0.0,0.0
17610,2,17610,0.-33,10.4,0.20,0.3,0.-9,0.-9,6.56,10.32,92534.13,758.46,0.0,0.0,0.0
17653,2,17653,0.-37,10.2,0.24,0.3,0.-10,0.-10,6.50,10.32,92545.1,758.36,0.0,0.0,0.0
17699,2,17699,0.-47,9.97,0.14,0.3,0.-9,0.-9,6.56,10.32,92537.34,758.65,0.0,0.0,0.0
17745,2,17745,0.-41,9.98,0.10,0.3,0.-9,0.-8,6.50,10.33,92543.94,758.85,0.0,0.0,0.0
17791,2,17791,0.-46,10.2,0.3,0.3,0.-10,0.-8,6.56,10.32,92531.95,757.87,0.0,0.0,0.0
17837,2,17837,0.-47,10.2,0.0,0.2,0.-8,0.-6,6.56,10.32,92538.46,759.14,0.0,0.0,0.0
17883,2,17883,0.-13,10.9,0.25,0.1,0.-8,0.-6,6.62,10.32,92540.64,758.55,0.0,0.0,0.0
17931,2,17931,0.7,10.1,0.12,0.1,0.-6,0.-8,6.62,10.32,92540.64,758.65,0.0,0.0,0.0
17977,2,17977,0.-35,10.5,0.-13,0.0,0.-10,0.-9,6.56,10.32,92547.15,758.26,0.0,0.0,0.0
18023,2,18023,0.-32,9.89,0.21,0.-2,0.-13,0.-9,6.56,10.33,92536.27,758.74,0.0,0.0,0.0
18069,2,18069,0.-24,10.2,0.65,0.-1,0.-21,0.-9,6.50,10.33,92536.32,758.74,0.0,0.0,0.0
18115,2,18115,0.-62,9.97,0.43,0.0,0.-19,0.-9,6.56,10.32,92538.46,758.65,0.0,0.0,0.0
18161,2,18161,0.-12,10.3,0.47,0.1,0.-10,0.-7,6.56,10.32,92546.8,758.45,0.0,0.0,0.0
18207,2,18209,0.-9,9.99,0.60,0.2,0.-15,0.-9,6.68,10.31,92545.7,759.43,0.0,0.0,0.0
18250,2,18250,0.-39,9.97,0.61,0.4,0.-14,0.-10,6.56,10.31,92533.1,759.4,0.0,0.0,0.0
18296,2,18296,0.-44,10.5,0.32,0.4,0.-8,0.-9,6.56,10.32,92535.20,758.84,0.0,0.0,0.0
18342,2,18342,0.-34,10.6,0.46,0.4,0.-10,0.-9,6.50,10.32,92541.76,758.64,0.0,0.0,0.0
18388,2,18388,0.-53,9.86,0.69,0.5,0.-15,0.-9,6.62,10.31,92533.1,758.94,0.0,0.0,0.0
18434,2,18434,0.-70,9.97,0.25,0.7,0.-8,0.-7,6.50,10.32,92541.76,759.4,0.0,0.0,0.0
18480,2,18480,0.-25,10.0,0.2,0.5,0.-9,0.-5,6.56,10.31,92539.62,758.25,0.0,0.0,0.0
18524,2,18524,0.-5,10.8,0.13,0.4,0.-9,0.-6,6.56,10.31,92536.32,758.74,0.0,0.0,0.0
18570,2,18570,0.-13,10.2,0.0,0.2,0.-10,0.-8,6.56,10.32,92538.50,758.16,0.0,0.0,0.0
18616,2,18616,0.-17,10.4,0.22,0.1,0.-17,0.-9,6.56,10.32,92533.7,759.33,0.0,0.0,0.0
18662,2,18662,0.-21,9.99,0.35,0.1,0.-22,0.-10,6.56,10.32,92538.50,758.84,0.0,0.0,0.0
18708,2,18708,0.-34,10.3,0.31,0.1,0.-17,0.-10,6.62,10.32,92531.95,758.45,0.0,0.0,0.0
18754,2,18754,0.-32,10.8,0.42,0.1,0.-18,0.-10,6.50,10.31,92539.57,759.13,0.0,0.0,0.0
18797,2,18797,0.-47,9.98,0.54,0.1,0.-21,0.-10,6.56,10.31,92531.95,758.93,0.0,0.0,0.0
18843,2,18843,0.-42,10.3,0.63,0.2,0.-18,0.-10,6.56,10.32,92531.95,758.64,0.0,0.0,0.0
18889,2,18889,0.-42,9.93,0.56,0.3,0.-12,0.-9,6.56,10.32,92537.39,758.55,0.0,0.0,0.0
18935,2,18935,0.-53,10.1,0.50,0.4,0.-10,0.-9,6.56,10.31,92538.50,758.45,0.0,0.0,0.0
18981,2,18981,0.-35,10.2,0.31,0.4,0.-8,0.-8,6.62,10.32,92537.39,758.64,0.0,0.0,0.0
19027,2,19027,0.-27,9.99,0.46,0.4,0.-9,0.-8,6.56,10.32,92540.74,758.64,0.0,0.0,0.0
19070,2,19070,0.-29,10.6,0.44,0.4,0.-8,0.-9,6.56,10.32,92535.25,759.23,0.0,0.0,0.0
19116,2,19116,0.-36,9.73,0.48,0.4,0.-9,0.-10,6.56,10.31,92536.32,758.74,0.0,0.0,0.0
19162,2,19162,0.-37,10.11,0.37,0.4,0.-8,0.-9,6.56,10.31,92539.62,758.35,0.0,0.0,0.0
19208,2,19208,0.-39,10.4,0.45,0.4,0.-9,0.-9,6.56,10.32,92530.88,758.74,0.0,0.0,0.0
19254,2,19254,0.-46,9.97,0.45,0.4,0.-9,0.-9,6.56,10.33,92537.39,758.74,0.0,0.0,0.0
19300,2,19300,0.-37,9.99,0.38,0.4,0.-8,0.-8,6.56,10.31,92534.18,758.44,0.0,0.0,0.0
19343,2,19343,0.-35,10.4,0.32,0.4,0.-8,0.-8,6.62,10.32,92536.32,759.23,0.0,0.0,0.0
19389,2,19389,0.-27,10.4,0.31,0.4,0.-9,0.-9,6.56,10.32,92536.37,759.3,0.0,0.0,0.0
19435,2,19435,0.-38,10.3,0.43,0.3,0.-10,0.-9,6.62,10.31,92537.43,758.5,0.0,0.0,0.0
19481,2,19481,0.-43,9.99,0.50,0.3,0.-12,0.-9,6.62,10.31,92534.13,758.84,0.0,0.0,0.0
19528,2,19528,0.-44,9.97,0.45,0.3,0.-9,0.-9,6.56,10.31,92541.81,759.13,0.0,0.0,0.0
19574,2,19574,0.-34,9.99,0.41,0.3,0.-9,0.-9,6.62,10.31,92539.62,758.16,0.0,0.0,0.0
19617,2,19617,0.-43,9.99,0.47,0.3,0.-9,0.-9,6.56,10.31,92530.83,759.4,0.0,0.0,0.0
19663,2,19663,0.-33,9.87,0.62,0.3,0.-8,0.-9,6.62,10.31,92535.25,758.55,0.0,0.0,0.0
19709,2,19709,0.-38,9.95,0.41,0.4,0.-8,0.-9,6.56,10.31,92539.62,758.64,0.0,0.0,0.0
19755,2,19755,0.-41,9.93,0.41,0.3,0.-8,0.-9,6.56,10.31,92542.88,758.64,0.0,0.0,0.0
19801,2,19801,0.-46,9.99,0.45,0.3,0.-8,0.-9,6.56,10.31,92529.81,759.43,0.0,0.0,0.0
19847,2,19847,0.-51,10.15,0.38,0.3,0.-8,0.-9,6.56,10.31,92538.50,758.83,0.0,0.0,0.0
19895,2,19895,0.-40,9.98,0.45,0.3,0.-7,0.-8,6.56,10.32,92539.62,759.33,0.0,0.0,0.0
19941,2,19941,0.-37,9.87,0.46,0.3,0.-9,0.-8,6.62,10.31,92541.76,759.43,0.0,0.0,0.0
19987,2,19987,0.-44,9.89,0.55,0.3,0.-8,0.-9,6.56,10.31,92541.81,758.35,0.0,0.0,0.0
20033,2,20033,0.-43,9.97,0.53,0.3,0.-8,0.-9,6.62,10.31,92536.32,758.84,0.0,0.0,0.0
20079,2,20079,0.-44,10.2,0.50,0.4,0.-9,0.-8,6.62,10.32,92535.20,758.74,0.0,0.0,0.0
20125,2,20125,0.-54,9.82,0.58,0.4,0.-8,0.-9,6.62,10.32,92538.50,758.16,0.0,0.0,0.0
20171,2,20173,0.-43,9.87,0.50,0.4,0.-9,0.-8,6.62,10.32,92533.7,758.74,0.0,0.0,0.0
20214,2,20214,0.-44,10.3,0.45,0.4,0.-6,0.-8,6.68,10.31,92539.62,758.74,0.0,0.0,0.0
20260,2,20260,0.-36,9.93,0.47,0.5,0.-6,0.-8,6.56,10.32,92536.37,758.25,0.0,0.0,0.0
20306,2,20306,0.-33,10.4,0.41,0.4,0.-9,0.-8,6.62,10.31,92536.27,758.74,0.0,0.0,0.0
20352,2,20352,0.-38,9.94,0.49,0.4,0.-8,0.-9,6.62,10.31,92534.13,758.93,0.0,0.0,0.0
20398,2,20398,0.-51,10.3,0.49,0.4,0.-9,0.-9,6.62,10.31,92542.88,758.74,0.0,0.0,0.0
20456,2,20456,0.-59,10.15,0.43,0.4,0.-8,0.-8,6.56,10.30,92536.42,758.63,0.0,0.0,0.0
20499,2,20499,0.-45,10.5,0.44,0.4,0.-8,0.-8,6.56,10.30,92541.85,759.13,0.0,0.0,0.0
20546,2,20546,0.-29,9.91,0.36,0.4,0.-9,0.-8,6.62,10.30,92542.92,758.44,0.0,0.0,0.0
20592,2,20592,0.-51,10.2,0.49,0.4,0.-9,0.-8,6.62,10.31,92536.37,758.64,0.0,0.0,0.0
20638,2,20638,0.-57,9.93,0.41,0.4,0.-10,0.-8,6.56,10.31,92542.88,758.83,0.0,0.0,0.0
20684,2,20684,0.-44,10.3,0.51,0.4,0.-11,0.-7,6.62,10.31,92531.95,758.54,0.0,0.0,0.0
20730,2,20730,0.-36,9.96,0.37,0.4,0.-10,0.-7,6.62,10.32,92538.50,758.54,0.0,0.0,0.0
20773,2,20773,0.-33,10.3,0.43,0.4,0.-10,0.-8,6.62,10.31,92538.60,758.54,0.0,0.0,0.0
20819,2,20819,0.-34,10.3,0.50,0.3,0.-12,0.-8,6.62,10.31,92540.74,759.23,0.0,0.0,0.0
20865,2,20865,0.-37,10.4,0.48,0.3,0.-10,0.-8,6.62,10.30,92541.81,759.23,0.0,0.0,0.0
20911,2,20911,0.-48,10.4,0.55,0.4,0.-12,0.-9,6.56,10.30,92539.62,759.23,0.0,0.0,0.0
20957,2,20957,0.-44,9.97,0.58,0.4,0.-12,0.-8,6.62,10.31,92539.62,759.13,0.0,0.0,0.0
21003,2,21003,0.-45,9.96,0.56,0.5,0.-11,0.-8,6.62,10.30,92544.4,758.93,0.0,0.0,0.0
21046,2,21046,0.-35,10.2,0.46,0.5,0.-8,0.-8,6.56,10.31,92540.74,758.44,0.0,0.0,0.0
21092,2,21092,0.-44,9.96,0.44,0.5,0.-9,0.-8,6.56,10.30,92535.25,758.83,0.0,0.0,0.0
21138,2,21138,0.-25,10.1,0.58,0.5,0.-8,0.-8,6.62,10.30,92535.25,758.25,0.0,0.0,0.0
21184,2,21184,0.-31,9.99,0.36,0.6,0.-7,0.-9,6.62,10.31,92535.25,758.35,0.0,0.0,0.0
21230,2,21230,0.-48,10.4,0.32,0.5,0.-9,0.-9,6.62,10.31,92534.13,759.3,0.0,0.0,0.0
21276,2,21276,0.-40,9.84,0.54,0.5,0.-9,0.-8,6.56,10.31,92530.88,758.16,0.0,0.0,0.0
21319,2,21319,0.-44,9.93,0.57,0.6,0.-9,0.-8,6.62,10.31,92532.0,759.23,0.0,0.0,0.0
21365,2,21365,0.-53,9.99,0.38,0.6,0.-8,0.-8,6.56,10.31,92528.69,759.14,0.0,0.0,0.0
21411,2,21411,0.-44,10.2,0.25,0.6,0.-8,0.-7,6.62,10.32,92534.18,759.62,0.0,0.0,0.0
21457,2,21457,0.-45,10.1,0.26,0.5,0.-9,0.-8,6.62,10.31,92536.32,758.45,0.0,0.0,0.0
21503,2,21503,0.-56,10.5,0.18,0.4,0.-9,0.-7,6.68,10.31,92531.95,759.33,0.0,0.0,0.0
21550,2,21550,0.-32,10.0,0.15,0.2,0.-10,0.-7,6.68,10.31,92530.88,759.23,0.0,0.0,0.0
21598,2,21598,0.-29,10.2,0.23,0.1,0.-13,0.-7,6.62,10.31,92538.55,759.13,0.0,0.0,0.0
21644,2,21644,0.-28,9.98,0.33,0.0,0.-13,0.-8,6.56,10.31,92535.25,759.23,0.0,0.0,0.0
21690,2,21690,0.-37,10.1,0.45,0.0,0.-19,0.-8,6.56,10.30,92539.62,758.54,0.0,0.0,0.0
21736,2,21736,0.-32,9.99,0.62,0.0,0.-16,0.-8,6.56,10.31,92528.69,759.23,0.0,0.0,0.0
21782,2,21782,0.-35,10.0,0.53,0.0,0.-12,0.-8,6.56,10.31,92539.62,759.3,0.0,0.0,0.0
21828,2,21828,0.-47,9.99,0.62,0.0,0.-10,0.-9,6.56,10.31,92536.37,758.93,0.0,0.0,0.0
21876,2,21876,0.-44,9.98,0.78,0.1,0.-8,0.-7,6.50,10.31,92534.18,759.13,0.0,0.0,0.0
21922,2,21922,0.-26,9.96,0.77,0.3,0.-7,0.-7,6.56,10.30,92534.18,759.52,0.0,0.0,0.0
21968,2,21968,0.-25,9.90,0.72,0.5,0.-8,0.-8,6.62,10.31,92535.30,759.23,0.0,0.0,0.0
22014,2,22014,0.-26,10.15,0.59,0.6,0.-7,0.-8,6.62,10.30,92537.43,759.42,0.0,0.0,0.0
22060,2,22060,0.-33,10.14,0.47,0.6,0.-10,0.-8,6.62,10.30,92535.30,759.3,0.0,0.0,0.0
22106,2,22106,0.-58,9.94,0.32,0.6,0.-9,0.-8,6.62,10.30,92530.92,759.13,0.0,0.0,0.0
22152,2,22154,0.-16,9.88,0.36,0.4,0.-9,0.-8,6.56,10.30,92533.11,759.22,0.0,0.0,0.0
22195,2,22195,0.-31,9.99,0.50,0.3,0.-9,0.-8,6.62,10.29,92537.49,758.83,0.0,0.0,0.0
22241,2,22241,0.-31,10.5,0.64,0.4,0.-9,0.-9,6.56,10.30,92539.67,759.52,0.0,0.0,0.0
22287,2,22287,0.-64,10.9,0.40,0.5,0.-8,0.-9,6.50,10.30,92532.4,759.3,0.0,0.0,0.0
22333,2,22333,0.-20,10.9,0.45,0.4,0.-8,0.-8,6.62,10.29,92536.42,758.83,0.0,0.0,0.0
22379,2,22379,0.-85,9.93,0.38,0.4,0.-10,0.-8,6.56,10.30,92526.60,759.22,0.0,0.0,0.0
22425,2,22425,0.-48,10.5,0.76,0.4,0.-9,0.-6,6.62,10.29,92535.35,758.83,0.0,0.0,0.0
22468,2,22468,0.-1,9.97,0.87,0.6,0.-8,0.-6,6.56,10.29,92538.65,758.83,0.0,0.0,0.0
22514,2,22514,0.-41,10.5,0.85,0.9,0.-8,0.-9,6.62,10.29,92534.23,759.2,0.0,0.0,0.0
22561,2,22561,0.-86,10.4,0.30,0.10,0.-9,0.-8,6.62,10.29,92533.11,758.83,0.0,0.0,0.0
22607,2,22607,0.-35,10.4,0.63,0.9,0.-9,0.-5,6.62,10.29,92537.53,758.44,0.0,0.0,0.0
22653,2,22653,0.-4,9.96,0.36,0.10,0.-6,0.-6,6.62,10.29,92537.49,759.22,0.0,0.0,0.0
22699,2,22699,0.-22,10.0,0.10,0.10,0.-8,0.-8,6.56,10.30,92532.10,759.41,0.0,0.0,0.0
22742,2,22742,0.-27,9.99,0.22,0.8,0.-10,0.-8,6.56,10.29,92537.53,759.2,0.0,0.0,0.0
22788,2,22788,0.-49,9.95,0.3,0.6,0.-9,0.-8,6.62,10.29,92534.28,759.22,0.0,0.0,0.0
22834,2,22834,0.-50,9.96,0.-8,0.3,0.-9,0.-6,6.62,10.29,92535.35,759.41,0.0,0.0,0.0
22880,2,22880,0.6,9.99,0.24,0.0,0.-13,0.-6,6.62,10.30,92530.98,759.51,0.0,0.0,0.0
22926,2,22926,0.-59,9.94,0.-11,0.-1,0.-25,0.-7,6.62,10.29,92528.84,759.22,0.0,0.0,0.0
22972,2,22972,0.13,10.3,0.21,0.-3,0.-24,0.-8,6.56,10.29,92532.10,759.31,0.0,0.0,0.0
23015,2,23015,0.33,10.2,0.73,0.-4,0.-26,0.-11,6.56,10.29,92535.39,758.92,0.0,0.0,0.0
23061,2,23061,-1.-3,9.97,0.83,0.-2,0.-21,0.-11,6.56,10.29,92543.3,759.2,0.0,0.0,0.0
23107,2,23107,0.-44,9.92,1.13,0.0,0.-19,0.-8,6.56,10.28,92532.10,759.41,0.0,0.0,0.0
23153,2,23153,0.-47,10.10,1.18,0.5,0.-27,0.-9,6.56,10.29,92535.35,758.93,0.0,0.0,0.0
23199,2,23199,0.-51,9.96,0.65,0.9,0.-9,0.-7,6.56,10.29,92538.65,758.73,0.0,0.0,0.0
23245,2,23245,0.-71,9.97,0.36,0.11,0.-11,0.-7,6.62,10.28,92545.16,758.93,0.0,0.0,0.0
23288,2,23288,0.11,9.96,0.28,0.9,0.-4,0.-5,6.62,10.29,92536.42,758.83,0.0,0.0,0.0
23334,2,23334,0.-35,10.2,0.-4,0.7,0.-4,0.-7,6.62,10.29,92538.60,759.2,0.0,0.0,0.0
23380,2,23380,0.-36,9.89,0.19,0.4,0.-9,0.-7,6.62,10.29,92533.16,759.12,0.0,0.0,0.0
23426,2,23426,0.-44,10.1,0.11,0.3,0.-11,0.-6,6.62,10.29,92528.84,758.73,0.0,0.0,0.0
23472,2,23472,0.-93,10.3,0.-3,0.0,0.-8,0.-4,6.56,10.29,92541.91,758.34,0.0,0.0,0.0
23518,2,23518,0.-44,10.3,0.-4,0.-2,0.0,0.0,6.62,10.29,92539.72,759.32,0.0,0.0,0.0
23567,2,23567,0.86,9.92,0.78,0.-4,0.17,0.-3,6.62,10.28,92539.72,758.83,0.0,0.0,0.0
23613,2,23613,0.18,9.99,0.95,0.-2,0.0,0.-9,6.62,10.28,92536.46,758.44,0.0,0.0,0.0
23659,2,23659,0.-14,10.2,0.53,0.0,0.7,0.-10,6.56,10.29,92542.97,758.83,0.0,0.0,0.0
23705,2,23705,0.-1,10.9,1.3,0.0,0.-5,0.-12,6.62,10.29,92540.79,758.83,0.0,0.0,0.0
23751,2,23751,0.-58,9.93,0.61,0.2,0.-4,0.-13,6.62,10.29,92529.86,759.2,0.0,0.0,0.0
23797,2,23797,0.-22,10.3,0.57,0.1,0.0,0.-9,6.62,10.29,92536.42,759.22,0.0,0.0,0.0
23843,2,23845,0.-25,10.2,0.67,0.2,0.-5,0.-11,6.62,10.29,92532.4,758.24,0.0,0.0,0.0
23886,2,23886,0.-44,10.4,0.52,0.1,0.1,0.-10,6.68,10.29,92536.42,758.73,0.0,0.0,0.0
23932,2,23932,0.-3,9.99,0.81,0.1,0.6,0.-11,6.62,10.29,92538.60,758.24,0.0,0.0,0.0
23978,2,23978,0.-49,10.1,0.69,0.2,0.-9,0.-10,6.68,10.29,92539.72,758.63,0.0,0.0,0.0
24024,2,24024,0.-31,10.1,0.61,0.3,0.-6,0.-11,6.62,10.30,92538.65,758.24,0.0,0.0,0.0
24070,2,24070,0.-33,10.9,0.58,0.1,0.-5,0.-11,6.62,10.29,92535.35,758.93,0.0,0.0,0.0
24116,2,24116,0.-21,9.98,0.94,0.1,0.-7,0.-11,6.62,10.29,92537.53,758.34,0.0,0.0,0.0
24159,2,24159,0.1,9.98,1.14,0.3,0.-7,0.-12,6.62,10.29,92534.23,759.12,0.0,0.0,0.0
24205,2,24205,0.-86,9.95,0.86,0.6,0.-8,0.-12,6.62,10.29,92537.53,758.24,0.0,0.0,0.0
24251,2,24251,0.-72,9.98,0.53,0.6,0.-7,0.-8,6.62,10.29,92538.65,759.3,0.0,0.0,0.0
24297,2,24297,0.-47,10.2,0.55,0.6,0.-9,0.-8,6.62,10.30,92534.23,758.73,0.0,0.0,0.0
24343,2,24343,0.-38,10.2,0.50,0.5,0.-9,0.-7,6.62,10.29,92530.92,758.83,0.0,0.0,0.0
24389,2,24389,0.-39,9.99,0.50,0.4,0.-9,0.-7,6.62,10.29,92536.46,758.44,0.0,0.0,0.0
24432,2,24432,0.-14,9.95,0.79,0.3,0.-8,0.-7,6.62,10.29,92542.97,758.73,0.0,0.0,0.0
24478,2,24478,0.-43,9.99,0.82,0.5,0.-9,0.-9,6.62,10.29,92536.42,758.15,0.0,0.0,0.0
24524,2,24524,0.-55,10.0,0.68,0.5,0.-8,0.-8,6.56,10.30,92535.30,758.93,0.0,0.0,0.0
24571,2,24571,0.-62,10.26,0.37,0.4,0.0,0.-8,6.62,10.30,92535.30,758.73,0.0,0.0,0.0
24617,2,24617,0.-22,9.94,0.70,0.3,0.-6,0.-8,6.56,10.30,92536.37,758.44,0.0,0.0,0.0
24663,2,24663,0.-48,9.93,0.63,0.3,0.-15,0.-8,6.62,10.29,92537.53,758.34,0.0,0.0,0.0
24706,2,24706,0.-85,10.11,0.57,0.2,0.-13,0.-6,6.62,10.29,92537.53,758.83,0.0,0.0,0.0
24752,2,24752,0.-42,10.0,0.84,0.2,0.-9,0.-6,6.68,10.29,92540.79,758.73,0.0,0.0,0.0
24798,2,24798,0.-25,9.92,0.91,0.3,0.-7,0.-5,6.62,10.30,92536.37,758.44,0.0,0.0,0.0
24844,2,24844,0.-19,10.0,0.67,0.4,0.-8,0.-6,6.68,10.30,92529.86,758.73,0.0,0.0,0.0
24890,2,24890,0.-25,9.94,0.57,0.4,0.-8,0.-7,6.56,10.30,92536.37,758.83,0.0,0.0,0.0
24936,2,24936,0.13,9.96,0.53,0.2,0.-5,0.-8,6.62,10.30,92538.55,758.25,0.0,0.0,0.0
24979,2,24979,0.-21,9.98,0.81,0.2,0.-9,0.-9,6.68,10.30,92542.88,758.15,0.0,0.0,0.0
25025,2,25025,0.-23,9.95,0.44,0.2,0.-7,0.-11,6.56,10.30,92534.18,758.64,0.0,0.0,0.0
25071,2,25071,0.-18,9.98,0.66,0.1,0.-10,0.-12,6.62,10.30,92540.79,759.3,0.0,0.0,0.0
25117,2,25117,0.-31,10.11,0.96,0.1,0.-16,0.-13,6.68,10.31,92538.55,759.13,0.0,0.0,0.0
25163,2,25163,0.-56,9.91,0.80,0.3,0.-9,0.-13,6.56,10.31,92535.25,758.73,0.0,0.0,0.0
25209,2,25209,0.-41,9.97,0.93,0.4,0.-9,0.-12,6.68,10.31,92535.30,758.25,0.0,0.0,0.0
25252,2,25252,0.-58,9.91,0.75,0.5,0.-12,0.-11,6.62,10.30,92533.11,758.73,0.0,0.0,0.0
25298,2,25298,0.-51,9.92,0.84,0.5,0.-12,0.-10,6.62,10.30,92537.49,758.73,0.0,0.0,0.0
25344,2,25344,0.-59,10.8,0.87,0.7,0.-13,0.-10,6.68,10.30,92542.92,758.93,0.0,0.0,0.0
25390,2,25390,0.-69,9.96,0.82,0.8,0.-12,0.-9,6.68,10.30,92542.92,758.73,0.0,0.0,0.0
25436,2,25436,0.-55,9.97,0.58,0.8,0.-11,0.-7,6.68,10.31,92536.37,758.83,0.0,0.0,0.0
25482,2,25482,0.-44,9.93,0.47,0.7,0.-12,0.-7,6.62,10.30,92537.49,758.73,0.0,0.0,0.0
25530,2,25530,0.-35,9.99,0.53,0.6,0.-12,0.-8,6.62,10.30,92539.67,758.93,0.0,0.0,0.0
25577,2,25577,0.-44,10.4,0.61,0.6,0.-14,0.-8,6.68,10.29,92536.37,759.22,0.0,0.0,0.0
25623,2,25623,0.-49,9.98,0.70,0.6,0.-14,0.-8,6.68,10.29,92538.60,758.83,0.0,0.0,0.0
25669,2,25669,0.-36,10.2,0.68,0.7,0.-13,0.-8,6.62,10.29,92527.67,759.3,0.0,0.0,0.0
25715,2,25715,0.-50,10.1,0.55,0.7,0.-14,0.-8,6.62,10.29,92534.23,758.24,0.0,0.0,0.0
25761,2,25761,0.-33,10.3,0.59,0.7,0.-11,0.-8,6.62,10.29,92539.72,758.53,0.0,0.0,0.0
25809,2,25809,0.-42,10.1,0.46,0.6,0.-12,0.-8,6.62,10.29,92545.16,758.43,0.0,0.0,0.0
25855,2,25855,0.-45,9.95,0.37,0.5,0.-12,0.-8,6.56,10.29,92535.35,758.24,0.0,0.0,0.0
25901,2,25901,0.-41,9.98,0.76,0.5,0.-12,0.-9,6.62,10.29,92529.91,758.63,0.0,0.0,0.0
25947,2,25947,0.-64,9.93,0.66,0.6,0.-11,0.-8,6.62,10.28,92538.65,758.93,0.0,0.0,0.0
25993,2,25993,0.-36,10.4,0.33,0.5,0.-9,0.-7,6.62,10.29,92543.3,759.22,0.0,0.0,0.0
26039,2,26039,0.-53,9.93,0.36,0.4,0.-10,0.-8,6.68,10.29,92535.39,759.3,0.0,0.0,0.0
26085,2,26087,0.-34,10.1,0.45,0.3,0.-10,0.-8,6.62,10.28,92541.96,759.2,0.0,0.0,0.0
26128,2,26128,0.-44,9.98,0.76,0.3,0.-11,0.-8,6.68,10.28,92537.53,758.73,0.0,0.0,0.0
26174,2,26174,0.-50,9.97,0.66,0.4,0.-8,0.-7,6.68,10.28,92529.91,758.93,0.0,0.0,0.0
26220,2,26220,0.-35,10.3,0.82,0.5,0.-9,0.-7,6.68,10.30,92534.28,758.73,0.0,0.0,0.0
26266,2,26266,0.-35,9.94,0.68,0.7,0.-8,0.-7,6.68,10.29,92540.79,758.73,0.0,0.0,0.0
26312,2,26312,0.-41,10.4,0.44,0.8,0.-10,0.-7,6.75,10.28,92541.91,758.92,0.0,0.0,0.0
26358,2,26358,0.-45,9.98,0.49,0.8,0.-15,0.-8,6.56,10.28,92534.91,758.97,0.0,0.0,0.0
26595,2,26595,0.-22,10.4,0.39,0.10,0.-14,0.-8,6.68,10.20,92536.85,758.50,0.0,0.0,0.0
26641,2,26641,0.-21,9.97,0.34,0.9,0.-13,0.-9,6.62,10.23,92536.76,759.58,0.0,0.0,0.0
26687,2,26687,0.-41,9.96,0.34,0.9,0.-31,0.-9,6.62,10.25,92534.48,758.91,0.0,0.0,0.0
26733,2,26733,0.-75,9.99,0.22,0.8,0.-23,0.-9,6.68,10.26,92540.99,758.72,0.0,0.0,0.0
26779,2,26779,0.-54,9.96,0.21,0.7,0.-18,0.-7,6.62,10.26,92535.50,759.21,0.0,0.0,0.0
26825,2,26825,0.-29,9.99,0.40,0.6,0.-19,0.-6,6.68,10.27,92536.13,758.57,0.0,0.0,0.0
27197,2,27197,0.-29,10.6,0.1,0.3,0.-13,0.-8,6.62,10.17,92539.24,758.59,0.0,0.0,0.0
27243,2,27243,0.-30,9.93,0.13,0.2,0.-15,0.-9,6.68,10.20,92534.67,759.9,0.0,0.0,0.0
27289,2,27289,0.-32,10.3,0.9,0.1,0.-8,0.-9,6.62,10.23,92537.83,758.41,0.0,0.0,0.0
27335,2,27335,0.-26,10.0,0.16,0.0,0.-10,0.-9,6.68,10.25,92533.46,758.13,0.0,0.0,0.0
27381,2,27381,0.-41,9.96,0.24,0.0,0.-9,0.-9,6.62,10.26,92537.73,758.32,0.0,0.0,0.0
27427,2,27427,0.-30,10.4,0.31,0.0,0.-6,0.-9,6.62,10.26,92541.52,758.47,0.0,0.0,0.0
27665,2,27665,0.-22,10.0,0.51,0.0,0.-12,0.-9,6.62,10.19,92541.32,758.69,0.0,0.0,0.0
27711,2,27711,0.-65,9.99,0.62,0.1,0.-7,0.-10,6.62,10.22,92534.67,758.80,0.0,0.0,0.0
27757,2,27757,0.-42,10.0,0.47,0.2,0.-7,0.-8,6.62,10.23,92544.39,758.80,0.0,0.0,0.0
27803,2,27803,0.-33,9.98,0.66,0.4,0.-9,0.-9,6.62,10.24,92530.10,759.30,0.0,0.0,0.0
27849,2,27849,0.-34,10.3,0.58,0.5,0.-9,0.-10,6.62,10.25,92542.10,758.23,0.0,0.0,0.0
27895,2,27895,0.-42,10.2,0.51,0.6,0.-8,0.-10,6.62,10.26,92537.25,758.56,0.0,0.0,0.0
28266,2,28266,0.-60,10.1,0.81,0.0,0.45,0.-6,6.68,10.16,92536.3,758.38,0.0,0.0,0.0
28312,2,28312,0.-29,9.95,0.44,0.3,0.-10,0.-6,6.62,10.19,92540.21,758.59,0.0,0.0,0.0
28358,2,28358,0.-55,9.99,0.65,0.4,0.-9,0.-6,6.62,10.21,92541.23,758.99,0.0,0.0,0.0
28404,2,28404,0.-43,10.2,0.49,0.5,0.-5,0.-5,6.62,10.23,92540.7,758.60,0.0,0.0,0.0
28450,2,28450,0.-11,10.2,0.45,0.4,0.-7,0.-6,6.68,10.24,92544.39,758.32,0.0,0.0,0.0
28496,2,28496,0.-8,10.5,0.45,0.4,0.-8,0.-8,6.56,10.24,92533.41,758.61,0.0,0.0,0.0
28737,2,28737,0.-48,9.95,0.83,0.5,0.-14,0.-11,6.62,10.15,92533.89,758.57,0.0,0.0,0.0
28783,2,28783,0.-33,10.6,0.72,0.7,0.-15,0.-10,6.68,10.19,92533.70,758.88,0.0,0.0,0.0
28829,2,28829,0.-56,10.1,0.61,0.9,0.-25,0.-11,6.68,10.20,92541.18,758.20,0.0,0.0,0.0
28875,2,28875,0.-58,9.98,0.61,0.9,0.-14,0.-9,6.68,10.23,92532.39,758.70,0.0,0.0,0.0
28921,2,28921,0.-40,10.0,0.40,0.10,0.-23,0.-9,6.62,10.23,92538.89,759.10,0.0,0.0,0.0
28967,2,28967,0.-47,9.98,0.35,0.10,0.-30,0.-10,6.68,10.24,92546.47,758.51,0.0,0.0,0.0
29344,2,29344,0.-66,9.99,0.54,0.6,0.-19,0.-11,6.56,10.12,92539.42,758.66,0.0,0.0,0.0
29390,2,29390,0.-68,9.99,0.50,0.8,0.-22,0.-10,6.56,10.16,92537.10,758.48,0.0,0.0,0.0
29436,2,29436,0.-59,9.96,0.35,0.9,0.-12,0.-9,6.56,10.18,92542.39,759.37,0.0,0.0,0.0
29482,2,29482,0.-52,10.1,0.25,0.9,0.-15,0.-9,6.56,10.21,92535.79,758.99,0.0,0.0,0.0
29528,2,29528,0.-52,10.0,0.18,0.9,0.-19,0.-9,6.62,10.22,92536.81,758.60,0.0,0.0,0.0
29574,2,29574,0.-53,10.5,0.21,0.8,0.-8,0.-10,6.62,10.23,92536.76,758.41,0.0,0.0,0.0
29622,2,29622,0.-49,9.98,0.18,0.7,0.-15,0.-10,6.62,10.23,92547.64,758.12,0.0,0.0,0.0
29668,2,29668,0.-66,10.4,0.8,0.7,0.-20,0.-9,6.68,10.24,92536.76,758.51,0.0,0.0,0.0
29714,2,29714,0.-62,10.1,0.14,0.6,0.-13,0.-8,6.62,10.25,92540.1,758.12,0.0,0.0,0.0
29761,2,29761,0.-61,10.1,0.20,0.6,0.-20,0.-8,6.62,10.25,92541.3,759.30,0.0,0.0,0.0
29807,2,29807,0.-65,10.0,0.14,0.6,0.-15,0.-8,6.62,10.25,92535.54,758.42,0.0,0.0,0.0
29853,2,29853,0.-53,10.4,0.14,0.5,0.-7,0.-7,6.56,10.25,92543.22,758.23,0.0,0.0,0.0
29901,2,29901,0.-49,9.97,0.10,0.5,0.-6,0.-8,6.62,10.25,92536.66,758.71,0.0,0.0,0.0
29947,2,29947,0.-59,10.1,0.4,0.5,0.-10,0.-8,6.62,10.25,92537.73,759.0,0.0,0.0,0.0
29993,2,29993,0.-46,10.1,0.9,0.4,0.-8,0.-7,6.62,10.26,92534.42,759.10,0.0,0.0,0.0
30039,2,30039,0.-51,9.99,0.12,0.4,0.-15,0.-7,6.62,10.26,92539.87,758.33,0.0,0.0,0.0
30085,2,30085,0.-51,10.0,0.6,0.3,0.-8,0.-8,6.62,10.26,92538.80,759.20,0.0,0.0,0.0
30131,2,30131,0.-38,10.1,0.19,0.3,0.-13,0.-8,6.68,10.26,92535.54,758.82,0.0,0.0,0.0
30177,2,30177,0.-48,9.96,0.20,0.3,0.-16,0.-8,6.62,10.25,92537.73,758.81,0.0,0.0,0.0
30220,2,30220,0.-67,9.93,0.19,0.4,0.-12,0.-8,6.62,10.26,92535.54,758.81,0.0,0.0,0.0
30266,2,30266,0.-76,9.99,0.11,0.3,0.-12,0.-7,6.68,10.25,92533.36,758.91,0.0,0.0,0.0
30312,2,30312,0.-58,10.3,0.18,0.3,0.-14,0.-5,6.62,10.26,92530.10,758.52,0.0,0.0,0.0
30358,2,30358,0.-68,10.12,0.17,0.2,0.-11,0.-5,6.62,10.26,92538.80,759.10,0.0,0.0,0.0
30404,2,30404,0.-41,9.92,0.20,0.2,0.-5,0.-5,6.68,10.26,92545.31,758.43,0.0,0.0,0.0
30465,2,30465,0.-20,10.5,0.30,0.2,0.-10,0.-6,6.62,10.25,92535.64,758.80,0.0,0.0,0.0
30508,2,30508,0.-15,10.9,0.38,0.2,0.-6,0.-8,6.62,10.24,92537.78,758.90,0.0,0.0,0.0
30554,2,30554,0.-55,10.6,0.18,0.3,0.-8,0.-9,6.68,10.26,92532.29,758.42,0.0,0.0,0.0
30600,2,30600,0.-52,9.94,0.19,0.3,0.-9,0.-9,6.62,10.25,92536.61,758.52,0.0,0.0,0.0
30646,2,30646,0.-42,10.3,0.42,0.3,0.-11,0.-8,6.62,10.26,92530.6,759.1,0.0,0.0,0.0
30692,2,30692,0.-59,9.97,0.44,0.4,0.-6,0.-8,6.62,10.26,92536.61,758.82,0.0,0.0,0.0
30738,2,30738,0.-43,10.1,0.45,0.6,0.-5,0.-9,6.62,10.25,92542.10,758.52,0.0,0.0,0.0
30782,2,30782,0.-72,9.95,0.26,0.6,0.-6,0.-8,6.62,10.25,92537.73,758.71,0.0,0.0,0.0
30828,2,30828,0.-44,9.97,0.18,0.7,0.-1,0.-7,6.62,10.26,92536.61,758.62,0.0,0.0,0.0
30874,2,30874,0.-58,9.93,0.-10,0.6,0.6,0.-8,6.62,10.27,92543.12,758.72,0.0,0.0,0.0
30920,2,30920,0.-37,9.99,0.20,0.5,0.13,0.-6,6.62,10.26,92542.5,758.42,0.0,0.0,0.0
30966,2,30966,0.-38,10.3,0.19,0.6,0.-5,0.-7,6.62,10.26,92537.68,758.42,0.0,0.0,0.0
31012,2,31012,0.-53,9.92,0.4,0.6,0.-4,0.-7,6.56,10.26,92543.12,758.33,0.0,0.0,0.0
31055,2,31055,0.-55,10.0,0.8,0.6,0.0,0.-6,6.62,10.26,92528.94,758.13,0.0,0.0,0.0
31101,2,31101,0.-49,10.13,0.13,0.5,0.-2,0.-6,6.56,10.26,92540.99,758.23,0.0,0.0,0.0
31147,2,31147,0.-44,9.98,0.7,0.5,0.-4,0.-6,6.62,10.26,92539.92,758.42,0.0,0.0,0.0
31193,2,31193,0.-25,10.2,0.16,0.4,0.-5,0.-7,6.68,10.26,92534.42,758.42,0.0,0.0,0.0
31239,2,31239,0.-33,9.95,0.16,0.4,0.-8,0.-7,6.62,10.25,92536.61,758.71,0.0,0.0,0.0
31285,2,31285,0.-39,9.98,0.8,0.4,0.-8,0.-8,6.62,10.26,92532.25,758.71,0.0,0.0,0.0
31333,2,31333,0.-49,9.99,0.5,0.4,0.-9,0.-8,6.62,10.26,92536.61,758.71,0.0,0.0,0.0
31379,2,31379,0.-51,9.96,0.5,0.3,0.-11,0.-8,6.62,10.26,92533.36,758.81,0.0,0.0,0.0
31425,2,31425,0.-45,10.2,0.11,0.3,0.-10,0.-7,6.62,10.26,92534.42,758.62,0.0,0.0,0.0
31471,2,31471,0.-45,9.99,0.18,0.3,0.-12,0.-7,6.56,10.26,92535.54,758.72,0.0,0.0,0.0
31517,2,31517,0.-41,10.7,0.18,0.3,0.-12,0.-7,6.62,10.26,92532.25,758.91,0.0,0.0,0.0
31563,2,31563,0.-44,10.2,0.22,0.3,0.-12,0.-7,6.56,10.25,92537.68,758.62,0.0,0.0,0.0
31611,2,31611,0.-35,10.5,0.28,0.4,0.-12,0.-7,6.56,10.26,92530.6,758.43,0.0,0.0,0.0
31657,2,31657,0.-42,10.0,0.23,0.5,0.-10,0.-8,6.62,10.26,92537.68,758.62,0.0,0.0,0.0
31703,2,31703,0.-33,9.95,0.18,0.4,0.-9,0.-7,6.56,10.26,92539.87,759.40,0.0,0.0,0.0
31749,2,31749,0.-34,10.4,0.20,0.4,0.-9,0.-7,6.68,10.26,92539.87,758.43,0.0,0.0,0.0
31796,2,31796,0.-26,9.99,0.17,0.4,0.-9,0.-8,6.62,10.27,92534.38,758.62,0.0,0.0,0.0
31842,2,31842,0.-23,10.7,0.18,0.4,0.-9,0.-8,6.68,10.26,92542.0,758.3,0.0,0.0,0.0
31888,2,31888,0.-35,9.97,0.18,0.4,0.-10,0.-9,6.62,10.26,92535.50,758.52,0.0,0.0,0.0
31931,2,31931,0.-38,10.0,0.18,0.4,0.-9,0.-9,6.68,10.26,92536.61,758.91,0.0,0.0,0.0
31977,2,31977,0.-36,10.2,0.19,0.4,0.-9,0.-9,6.62,10.26,92536.57,759.50,0.0,0.0,0.0
32023,2,32023,0.-42,9.98,0.16,0.4,0.-8,0.-8,6.68,10.26,92535.50,759.11,0.0,0.0,0.0
32069,2,32069,0.-44,10.1,0.18,0.4,0.-9,0.-8,6.68,10.26,92542.0,758.43,0.0,0.0,0.0
32115,2,32115,0.-33,10.1,0.14,0.4,0.-9,0.-8,6.68,10.27,92537.68,758.72,0.0,0.0,0.0
32161,2,32161,0.-45,9.93,0.20,0.4,0.-9,0.-8,6.68,10.26,92540.93,758.33,0.0,0.0,0.0
32204,2,32204,0.-33,10.1,0.16,0.4,0.-9,0.-8,6.62,10.26,92539.87,758.52,0.0,0.0,0.0
32250,2,32250,0.-32,9.98,0.19,0.5,0.-10,0.-8,6.68,10.26,92540.93,758.82,0.0,0.0,0.0
32296,2,32296,0.-35,10.8,0.25,0.5,0.-10,0.-8,6.62,10.27,92545.26,758.62,0.0,0.0,0.0
32342,2,32342,0.-44,9.98,0.18,0.5,0.-9,0.-8,6.62,10.27,92544.19,759.11,0.0,0.0,0.0
32388,2,32388,0.-36,10.4,0.10,0.5,0.-10,0.-7,6.75,10.27,92542.0,758.62,0.0,0.0,0.0
32434,2,32434,0.-19,10.4,0.17,0.4,0.-9,0.-8,6.68,10.27,92536.57,758.91,0.0,0.0,0.0
32477,2,32477,0.-38,10.4,0.6,0.4,0.-9,0.-9,6.68,10.26,92539.87,758.42,0.0,0.0,0.0
32523,2,32523,0.-39,10.32,0.1,0.4,0.-14,0.-9,6.62,10.26,92536.57,758.13,0.0,0.0,0.0
32569,2,32569,0.-38,10.8,0.10,0.3,0.-16,0.-9,6.62,10.26,92532.25,758.43,0.0,0.0,0.0
32615,2,32615,0.-44,9.95,0.14,0.2,0.-14,0.-8,6.62,10.26,92537.68,758.63,0.0,0.0,0.0
32661,2,32661,0.-36,10.2,0.17,0.2,0.-12,0.-8,6.62,10.27,92534.38,758.53,0.0,0.0,0.0
32707,2,32707,0.-32,10.5,0.28,0.2,0.-11,0.-8,6.62,10.26,92543.12,758.43,0.0,0.0,0.0
32750,2,32750,0.-38,10.4,0.29,0.2,0.-10,0.-8,6.68,10.27,92537.64,758.62,0.0,0.0,0.0
32797,2,32797,0.-40,9.95,0.43,0.4,0.-10,0.-9,6.62,10.27,92535.50,758.52,0.0,0.0,0.0
32843,2,32843,0.-27,10.1,0.40,0.5,0.-9,0.-9,6.68,10.26,92536.57,758.53,0.0,0.0,0.0
32889,2,32889,0.-49,10.0,0.20,0.6,0.-8,0.-9,6.75,10.26,92539.87,758.62,0.0,0.0,0.0
32935,2,32935,0.-42,10.8,0.33,0.6,0.-8,0.-9,6.75,10.27,92537.64,759.21,0.0,0.0,0.0
32981,2,32981,0.-36,9.99,0.28,0.7,0.-9,0.-9,6.62,10.26,92540.93,758.63,0.0,0.0,0.0
33024,2,33024,0.-43,9.99,0.17,0.7,0.-8,0.-8,6.68,10.27,92536.57,758.62,0.0,0.0,0.0
33070,2,33070,0.-38,10.15,0.15,0.7,0.-4,0.-9,6.68,10.27,92536.52,758.4,0.0,0.0,0.0
33116,2,33116,0.-38,10.16,0.13,0.6,0.-3,0.-9,6.62,10.26,92538.70,758.63,0.0,0.0,0.0
33162,2,33162,0.-42,10.6,0.2,0.6,0.-7,0.-8,6.68,10.26,92539.82,759.1,0.0,0.0,0.0
33208,2,33208,0.-52,10.0,0.-8,0.5,0.-5,0.-8,6.68,10.26,92538.70,758.53,0.0,0.0,0.0
33254,2,33254,0.-31,10.10,0.5,0.4,0.-2,0.-9,6.62,10.26,92543.7,758.62,0.0,0.0,0.0
33302,2,33302,0.-31,10.10,0.5,0.3,0.-5,0.-10,6.68,10.26,92532.25,758.72,0.0,0.0,0.0
33348,2,33348,0.-62,10.20,0.-11,0.3,0.-8,0.-10,6.68,10.26,92539.87,758.91,0.0,0.0,0.0
33394,2,33394,0.-30,9.96,0.16,0.2,0.-9,0.-9,6.62,10.26,92538.75,758.52,0.0,0.0,0.0
33440,2,33440,0.-33,9.98,0.0,0.1,0.-10,0.-10,6.62,10.27,92545.31,758.91,0.0,0.0,0.0
33486,2,33486,0.-67,9.96,0.-16,0.0,0.-12,0.-9,6.62,10.26,92536.57,758.42,0.0,0.0,0.0
33532,2,33532,0.-40,9.97,0.21,0.0,0.-15,0.-9,6.62,10.26,92539.87,758.13,0.0,0.0,0.0
33580,2,33580,0.-67,10.8,0.47,0.0,0.-10,0.-8,6.62,10.26,92534.42,758.23,0.0,0.0,0.0
33626,2,33626,0.-29,10.2,0.49,0.0,0.-9,0.-8,6.56,10.26,92533.31,758.91,0.0,0.0,0.0
33672,2,33672,0.-38,9.90,0.42,0.1,0.-8,0.-8,6.62,10.26,92537.68,759.1,0.0,0.0,0.0
33718,2,33718,0.-31,10.2,0.52,0.3,0.-10,0.-9,6.62,10.26,92540.99,758.62,0.0,0.0,0.0
33764,2,33764,0.-46,10.0,0.45,0.5,0.-3,0.-10,6.62,10.26,92542.5,758.62,0.0,0.0,0.0
33811,2,33811,0.-41,10.3,0.30,0.6,0.-2,0.-9,6.62,10.26,92535.54,758.72,0.0,0.0,0.0
33857,2,33857,0.-62,10.3,0.15,0.5,0.9,0.-9,6.62,10.26,92538.85,758.42,0.0,0.0,0.0
33900,2,33900,0.-59,9.90,0.9,0.5,0.9,0.-8,6.62,10.26,92536.61,758.81,0.0,0.0,0.0
33946,2,33946,-1.0,10.84,0.-34,0.5,0.0,0.-8,6.62,10.25,92539.92,758.81,0.0,0.0,0.0
33992,2,33992,0.-22,9.57,0.16,0.5,0.-4,0.-9,6.62,10.25,92535.54,758.13,0.0,0.0,0.0
34038,2,34038,0.-46,10.0,0.3,0.4,0.-7,0.-9,6.68,10.25,92537.73,759.20,0.0,0.0,0.0
34084,2,34084,0.-54,9.95,0.3,0.3,0.-5,0.-9,6.68,10.26,92536.61,758.62,0.0,0.0,0.0
34130,2,34130,0.-53,10.13,0.10,0.2,0.-9,0.-8,6.68,10.25,92539.92,758.71,0.0,0.0,0.0
34173,2,34173,0.-43,10.5,0.15,0.1,0.-16,0.-7,6.62,10.26,92536.66,758.91,0.0,0.0,0.0
34219,2,34219,0.-52,10.3,0.23,0.0,0.-20,0.-6,6.68,10.26,92538.80,758.3,0.0,0.0,0.0
34265,2,34265,-1.-9,9.8,0.13,0.1,0.-21,0.-8,6.62,10.26,92539.87,758.72,0.0,0.0,0.0
34311,2,34311,0.-69,10.5,0.-2,0.1,0.-15,0.-8,6.62,10.26,92540.99,758.81,0.0,0.0,0.0
34357,2,34357,0.-57,10.15,0.58,0.3,0.-9,0.-7,6.62,10.27,92531.17,758.91,0.0,0.0,0.0
34403,2,34403,0.-45,9.80,0.37,0.4,0.-11,0.-6,6.62,10.25,92532.29,758.91,0.0,0.0,0.0
34446,2,34446,0.-49,10.37,0.31,0.5,0.-10,0.-6,6.62,10.25,92533.36,759.20,0.0,0.0,0.0
34492,2,34492,0.-4,10.0,0.47,0.6,0.-9,0.-7,6.62,10.26,92535.54,759.10,0.0,0.0,0.0
34538,2,34538,0.-19,9.93,0.30,0.6,0.-9,0.-8,6.68,10.26,92542.10,758.71,0.0,0.0,0.0
34584,2,34584,0.-52,10.4,0.16,0.5,0.-10,0.-9,6.62,10.26,92539.92,758.61,0.0,0.0,0.0
34630,2,34630,0.-53,10.5,0.5,0.3,0.-11,0.-7,6.62,10.26,92545.35,759.0,0.0,0.0,0.0
34676,2,34676,0.-36,9.93,0.38,0.2,0.-14,0.-7,6.62,10.26,92542.0,759.1,0.0,0.0,0.0
34719,2,34719,0.-28,10.4,0.55,0.3,0.-11,0.-7,6.68,10.26,92545.35,758.91,0.0,0.0,0.0
34765,2,34765,0.-28,9.97,0.48,0.6,0.-9,0.-9,6.62,10.26,92537.73,758.33,0.0,0.0,0.0
34812,2,34812,0.-59,10.7,0.23,0.7,0.-8,0.-8,6.62,10.26,92533.36,759.1,0.0,0.0,0.0
34858,2,34858,0.-31,9.97,0.14,0.6,0.-11,0.-7,6.68,10.26,92535.54,758.62,0.0,0.0,0.0
34904,2,34904,0.-32,9.97,0.10,0.5,0.-15,0.-8,6.68,10.26,92538.80,758.81,0.0,0.0,0.0
34950,2,34950,0.-36,10.8,0.3,0.4,0.-16,0.-8,6.62,10.25,92530.6,758.32,0.0,0.0,0.0
34998,2,34998,0.-44,9.90,0.17,0.4,0.-18,0.-8,6.62,10.25,92534.48,758.71,0.0,0.0,0.0
35044,2,35044,0.-34,10.9,0.32,0.4,0.-20,0.-8,6.68,10.26,92539.92,758.71,0.0,0.0,0.0
35090,2,35090,0.-63,9.96,0.16,0.4,0.-18,0.-8,6.62,10.25,92535.54,758.23,0.0,0.0,0.0
35136,2,35136,0.-48,10.5,0.31,0.3,0.-9,0.-7,6.68,10.25,92534.48,758.81,0.0,0.0,0.0
35182,2,35182,0.-45,9.98,0.44,0.4,0.-14,0.-7,6.62,10.26,92538.75,758.42,0.0,0.0,0.0
35228,2,35228,0.-36,10.5,0.32,0.5,0.-9,0.-6,6.68,10.25,92538.80,759.10,0.0,0.0,0.0
35276,2,35276,0.-29,10.7,0.22,0.5,0.-11,0.-6,6.68,10.25,92534.48,759.40,0.0,0.0,0.0
35322,2,35322,0.-28,9.94,0.11,0.5,0.-11,0.-7,6.56,10.26,92536.66,758.72,0.0,0.0,0.0
35368,2,35368,0.-27,10.4,0.4,0.4,0.-11,0.-7,6.62,10.24,92535.54,758.62,0.0,0.0,0.0
35414,2,35414,0.-32,10.4,0.28,0.3,0.-16,0.-8,6.62,10.25,92535.50,758.42,0.0,0.0,0.0
35460,2,35460,0.-41,10.2,0.30,0.3,0.-16,0.-7,6.62,10.26,92540.99,759.30,0.0,0.0,0.0
35506,2,35506,0.-33,10.3,0.22,0.3,0.-14,0.-7,6.62,10.25,92540.99,758.81,0.0,0.0,0.0
35552,2,35554,0.-20,10.4,0.26,0.2,0.-11,0.-7,6.62,10.25,92539.92,758.22,0.0,0.0,0.0
35595,2,35595,0.-31,10.6,0.48,0.3,0.-13,0.-8,6.62,10.25,92538.85,758.71,0.0,0.0,0.0
35641,2,35641,0.-44,10.0,0.37,0.5,0.-10,0.-9,6.62,10.25,92536.66,758.61,0.0,0.0,0.0
35687,2,35687,0.-37,10.4,0.33,0.5,0.-8,0.-7,6.68,10.25,92537.73,758.42,0.0,0.0,0.0
35733,2,35733,0.-20,10.2,0.25,0.6,0.-8,0.-7,6.68,10.25,92529.3,759.20,0.0,0.0,0.0
35779,2,35779,0.-25,10.0,0.19,0.6,0.-9,0.-8,6.62,10.25,92542.15,758.52,0.0,0.0,0.0
35826,2,35826,0.-12,10.4,0.15,0.6,0.-8,0.-9,6.62,10.25,92535.60,758.90,0.0,0.0,0.0
35868,2,35868,0.-36,10.1,0.-14,0.4,0.-9,0.-10,6.62,10.25,92535.60,759.0,0.0,0.0,0.0
35914,2,35914,0.-62,10.6,0.13,0.2,0.-9,0.-7,6.68,10.26,92542.10,759.0,0.0,0.0,0.0
35960,2,35960,0.-20,9.99,0.22,0.2,0.-9,0.-7,6.62,10.25,92539.96,758.51,0.0,0.0,0.0
36006,2,36006,0.-33,10.2,0.31,0.2,0.-9,0.-7,6.62,10.25,92539.92,759.30,0.0,0.0,0.0
36052,2,36052,0.-11,10.4,0.47,0.3,0.-9,0.-7,6.62,10.25,92541.8,758.32,0.0,0.0,0.0
36098,2,36098,0.-66,9.85,0.48,0.4,0.-10,0.-8,6.62,10.24,92545.40,758.61,0.0,0.0,0.0
36141,2,36141,0.-20,10.6,0.42,0.6,0.-9,0.-6,6.62,10.24,92542.15,758.71,0.0,0.0,0.0
36187,2,36187,0.1,10.3,0.13,0.6,0.-8,0.-7,6.68,10.25,92541.8,759.10,0.0,0.0,0.0
36233,2,36233,0.-16,10.10,0.0,0.5,0.-8,0.-9,6.62,10.25,92539.96,758.90,0.0,0.0,0.0
36279,2,36279,0.-36,9.99,0.-14,0.3,0.-9,0.-10,6.62,10.25,92546.52,758.61,0.0,0.0,0.0
36325,2,36325,0.-18,10.16,0.18,0.1,0.-8,0.-9,6.62,10.25,92545.40,758.90,0.0,0.0,0.0
36371,2,36371,0.-17,10.3,0.44,0.1,0.-9,0.-10,6.62,10.25,92549.82,758.2,0.0,0.0,0.0
36414,2,36414,0.-49,9.91,0.55,0.3,0.-8,0.-10,6.62,10.24,92547.64,758.12,0.0,0.0,0.0
36460,2,36460,0.-65,10.44,0.25,0.4,0.-5,0.-9,6.62,10.24,92544.34,758.51,0.0,0.0,0.0
36506,2,36506,0.-44,9.85,0.29,0.3,0.-9,0.-7,6.62,10.24,92542.20,758.51,0.0,0.0,0.0
36552,2,36552,0.-31,10.2,0.40,0.4,0.-9,0.-7,6.62,10.24,92537.83,758.61,0.0,0.0,0.0
36598,2,36598,0.-25,10.5,0.36,0.5,0.-8,0.-7,6.62,10.25,92538.89,757.93,0.0,0.0,0.0
36644,2,36644,0.-24,10.10,0.0,0.6,0.-8,0.-8,6.68,10.24,92540.1,758.42,0.0,0.0,0.0
36687,2,36687,0.-32,10.1,0.-7,0.4,0.-9,0.-8,6.62,10.24,92538.89,758.22,0.0,0.0,0.0
36733,2,36733,0.-18,10.6,0.18,0.3,0.-9,0.-8,6.68,10.25,92538.85,758.22,0.0,0.0,0.0
36779,2,36779,0.-19,10.9,0.40,0.2,0.-8,0.-9,6.62,10.25,92541.3,758.90,0.0,0.0,0.0
36826,2,36826,0.-33,9.93,0.38,0.4,0.4,0.-10,6.68,10.24,92536.71,758.52,0.0,0.0,0.0
36872,2,36872,0.-34,10.1,0.39,0.4,0.22,0.-9,6.68,10.25,92538.85,758.51,0.0,0.0,0.0
36918,2,36918,0.-47,9.99,0.83,0.7,0.26,0.-8,6.62,10.25,92538.85,758.51,0.0,0.0,0.0
36966,2,36966,0.-43,9.86,0.45,0.11,0.-1,0.-7,6.62,10.25,92535.60,758.12,0.0,0.0,0.0
37012,2,37012,0.-21,10.4,0.18,0.11,0.-6,0.-7,6.62,10.25,92543.22,758.51,0.0,0.0,0.0
37058,2,37058,0.-11,10.5,0.-20,0.10,0.-7,0.-8,6.68,10.24,92541.3,758.12,0.0,0.0,0.0
37104,2,37104,0.-26,9.97,0.-19,0.7,0.-3,0.-9,6.62,10.24,92535.60,757.93,0.0,0.0,0.0
37150,2,37150,0.-32,9.97,0.14,0.4,0.-8,0.-10,6.68,10.24,92539.96,758.42,0.0,0.0,0.0
37196,2,37196,0.-41,10.2,0.22,0.3,0.-6,0.-9,6.62,10.25,92544.34,758.51,0.0,0.0,0.0
37244,2,37244,0.-32,10.7,0.44,0.3,0.4,0.-9,6.68,10.24,92537.78,758.42,0.0,0.0,0.0
37290,2,37290,0.-32,10.2,0.16,0.4,0.-10,0.-9,6.62,10.25,92543.22,758.22,0.0,0.0,0.0
37336,2,37336,0.-49,10.4,0.56,0.4,0.-17,0.-10,6.75,10.25,92537.78,758.32,0.0,0.0,0.0
37382,2,37382,0.-45,9.97,0.-4,0.6,0.-18,0.-8,6.68,10.25,92542.10,758.13,0.0,0.0,0.0
37428,2,37428,0.-14,10.1,0.18,0.6,0.13,0.-5,6.68,10.25,92536.66,758.61,0.0,0.0,0.0
37474,2,37474,0.-31,10.7,0.-13,0.7,0.-13,0.-5,6.68,10.25,92545.35,758.13,0.0,0.0,0.0
37520,2,37522,0.0,10.18,0.-46,0.4,0.-24,0.-6,6.68,10.25,92542.15,758.22,0.0,0.0,0.0
37563,2,37563,0.-20,10.4,0.-29,0.1,0.-29,0.-8,6.62,10.24,92542.10,758.90,0.0,0.0,0.0
37609,2,37609,0.-34,10.2,0.-10,0.0,0.-29,0.-8,6.68,10.24,92545.35,758.91,0.0,0.0,0.0
37655,2,37655,0.-27,10.4,0.13,0.-2,0.-27,0.-8,6.68,10.24,92545.35,758.51,0.0,0.0,0.0
37701,2,37701,0.-15,10.6,0.48,0.-1,0.-30,0.-8,6.62,10.26,92543.22,758.71,0.0,0.0,0.0
37747,2,37747,0.-47,9.98,0.46,0.0,0.-30,0.-8,6.62,10.25,92534.48,758.52,0.0,0.0,0.0
37793,2,37793,0.-62,10.75,0.83,0.1,0.-16,0.-8,6.62,10.24,92539.96,757.93,0.0,0.0,0.0
37837,2,37837,0.-34,10.15,0.34,0.3,0.-11,0.-7,6.62,10.25,92534.48,758.52,0.0,0.0,0.0
37883,2,37883,0.-35,8.72,0.24,0.3,0.-10,0.-6,6.62,10.26,92539.96,758.52,0.0,0.0,0.0
37929,2,37929,0.-20,10.16,0.42,0.5,0.-9,0.-8,6.62,10.25,92541.3,758.22,0.0,0.0,0.0
37975,2,37975,0.-63,9.76,0.22,0.7,0.-9,0.-9,6.68,10.25,92539.87,758.42,0.0,0.0,0.0
38021,2,38021,0.-35,9.94,0.9,0.7,0.-8,0.-7,6.68,10.26,92548.66,758.71,0.0,0.0,0.0
38067,2,38067,0.-26,9.92,0.-11,0.6,0.-10,0.-7,6.68,10.25,92545.40,758.52,0.0,0.0,0.0
38110,2,38110,0.-29,10.2,0.-18,0.4,0.-12,0.-7,6.62,10.26,92538.80,758.32,0.0,0.0,0.0
38156,2,38156,0.1,10.6,0.17,0.0,0.-14,0.-7,6.68,10.25,92535.60,758.42,0.0,0.0,0.0
38202,2,38202,0.-7,9.93,0.54,0.1,0.-12,0.-9,6.68,10.26,92538.80,758.23,0.0,0.0,0.0
38248,2,38248,0.-4,9.97,0.62,0.3,0.-9,0.-9,6.75,10.26,92540.99,758.32,0.0,0.0,0.0
38294,2,38294,0.-47,10.1,0.43,0.5,0.-9,0.-10,6.68,10.26,92540.99,757.83,0.0,0.0,0.0
38340,2,38340,0.-27,10.6,0.33,0.6,0.-9,0.-9,6.68,10.26,92537.73,758.81,0.0,0.0,0.0
38383,2,38383,0.-15,10.10,0.29,0.7,0.-9,0.-9,6.75,10.26,92544.24,758.13,0.0,0.0,0.0
38429,2,38429,0.-22,10.1,0.3,0.6,0.-7,0.-9,6.75,10.26,92539.92,758.52,0.0,0.0,0.0
38475,2,38475,0.-29,10.0,0.-3,0.6,0.-8,0.-10,6.62,10.25,92535.54,759.10,0.0,0.0,0.0
38521,2,38521,0.-34,10.6,0.-2,0.5,0.-9,0.-10,6.68,10.26,92551.92,758.23,0.0,0.0,0.0
38567,2,38567,0.-22,10.7,0.18,0.4,0.-9,0.-9,6.68,10.26,92542.5,758.72,0.0,0.0,0.0
38613,2,38613,0.-34,10.3,0.13,0.4,0.-10,0.-10,6.62,10.25,92535.54,758.62,0.0,0.0,0.0
38656,2,38656,0.-33,9.93,0.12,0.3,0.-12,0.-10,6.68,10.25,92546.47,759.10,0.0,0.0,0.0
38702,2,38702,0.-23,10.0,0.20,0.3,0.-12,0.-9,6.62,10.25,92538.80,759.20,0.0,0.0,0.0
38748,2,38748,0.-28,10.2,0.7,0.2,0.-12,0.-9,6.68,10.25,92537.73,758.61,0.0,0.0,0.0
38794,2,38794,0.-29,10.0,0.11,0.2,0.-12,0.-10,6.62,10.25,92539.92,758.22,0.0,0.0,0.0
38841,2,38841,0.-23,10.1,0.24,0.1,0.-19,0.-10,6.68,10.26,92543.22,758.51,0.0,0.0,0.0
38887,2,38887,0.-25,9.91,0.33,0.1,0.-12,0.-11,6.75,10.25,92532.34,758.71,0.0,0.0,0.0
38930,2,38930,0.-33,10.11,0.40,0.1,0.-13,0.-11,6.68,10.25,92543.22,758.61,0.0,0.0,0.0
38976,2,38976,0.-37,9.92,0.42,0.2,0.-10,0.-10,6.68,10.25,92542.15,759.0,0.0,0.0,0.0
39022,2,39022,0.-50,9.95,0.31,0.2,0.-12,0.-10,6.68,10.25,92545.35,758.32,0.0,0.0,0.0
39068,2,39068,0.-58,9.99,0.45,0.3,0.-13,0.-9,6.68,10.25,92543.17,758.32,0.0,0.0,0.0
39114,2,39114,0.-47,10.0,0.29,0.4,0.-6,0.-7,6.68,10.25,92538.85,759.0,0.0,0.0,0.0
39160,2,39160,0.-22,10.3,0.32,0.4,0.-8,0.-7,6.68,10.25,92542.10,758.3,0.0,0.0,0.0
39203,2,39203,0.-25,10.0,0.39,0.4,0.-7,0.-8,6.75,10.26,92537.73,758.90,0.0,0.0,0.0
39249,2,39249,0.-11,10.3,0.35,0.4,0.-8,0.-9,6.68,10.26,92538.85,758.3,0.0,0.0,0.0
39295,2,39295,0.-25,10.2,0.31,0.5,0.-6,0.-10,6.68,10.25,92537.73,758.42,0.0,0.0,0.0
39341,2,39341,0.-28,10.0,0.23,0.5,0.-7,0.-11,6.68,10.25,92533.36,758.22,0.0,0.0,0.0
39387,2,39387,0.-21,9.98,0.19,0.5,0.-11,0.-11,6.75,10.26,92542.10,759.0,0.0,0.0,0.0
39433,2,39433,0.-28,10.3,0.20,0.5,0.-9,0.-13,6.68,10.24,92538.85,758.61,0.0,0.0,0.0
39481,2,39481,0.-33,9.99,0.21,0.5,0.-14,0.-13,6.68,10.25,92539.92,758.90,0.0,0.0,0.0
39527,2,39527,0.-47,10.9,0.31,0.5,0.-17,0.-14,6.68,10.24,92542.15,758.81,0.0,0.0,0.0
39573,2,39573,0.-37,9.89,0.22,0.5,0.-12,0.-14,6.68,10.24,92537.73,758.51,0.0,0.0,0.0
39619,2,39619,0.-66,10.1,0.16,0.5,0.-20,0.-13,6.68,10.24,92543.22,758.3,0.0,0.0,0.0
39665,2,39665,0.-62,9.99,0.18,0.5,0.-20,0.-13,6.68,10.25,92545.40,758.3,0.0,0.0,0.0
39711,2,39711,0.-50,10.4,0.18,0.4,0.-18,0.-12,6.75,10.24,92537.78,758.51,0.0,0.0,0.0
39759,2,39759,0.-43,9.92,0.33,0.4,0.-19,0.-13,6.62,10.24,92535.54,758.13,0.0,0.0,0.0
39805,2,39805,1.91,8.19,0.95,0.6,0.-24,0.-13,6.68,10.24,92544.34,758.32,0.0,0.0,0.0
39852,2,39852,0.-14,9.25,0.7,0.6,0.-20,0.-11,6.68,10.25,92541.3,757.93,0.0,0.0,0.0
39898,2,39898,0.-86,10.59,0.45,0.5,0.-14,0.-11,6.62,10.25,92539.96,758.80,0.0,0.0,0.0
39944,2,39944,-1.-17,10.16,0.19,0.6,0.-14,0.-10,6.68,10.24,92541.8,758.80,0.0,0.0,0.0
39990,2,39990,0.-60,10.6,0.15,0.5,0.-3,0.-9,6.68,10.24,92537.78,759.10,0.0,0.0,0.0
40038,2,40038,0.-65,10.14,0.27,0.5,0.-13,0.-10,6.68,10.24,92541.8,758.51,0.0,0.0,0.0
40084,2,40084,0.-94,10.2,0.14,0.4,0.-12,0.-9,6.75,10.23,92531.27,758.70,0.0,0.0,0.0
40130,2,40130,0.-86,9.99,0.52,0.6,0.-11,0.-9,6.62,10.24,92536.71,758.31,0.0,0.0,0.0
40176,2,40176,0.-99,9.94,0.24,0.7,0.-7,0.-7,6.68,10.24,92541.8,758.3,0.0,0.0,0.0
40222,2,40222,0.-79,9.87,0.20,0.7,0.-1,0.-5,6.68,10.23,92536.76,758.31,0.0,0.0,0.0
40268,2,40268,0.-77,10.0,0.17,0.8,0.-11,0.-4,6.68,10.23,92541.8,758.80,0.0,0.0,0.0
40314,2,40316,0.-45,9.95,0.9,0.7,0.-1,0.-4,6.68,10.23,92540.1,758.70,0.0,0.0,0.0
40357,2,40357,0.-2,10.3,0.17,0.7,0.-4,0.-5,6.68,10.23,92543.32,758.21,0.0,0.0,0.0
40403,2,40403,0.-23,10.6,0.-8,0.7,0.-15,0.-9,6.68,10.23,92538.95,758.90,0.0,0.0,0.0
40449,2,40449,0.-35,9.98,0.-4,0.6,0.-16,0.-11,6.62,10.24,92541.8,758.12,0.0,0.0,0.0
40506,2,40506,0.-58,9.93,0.0,0.5,0.-17,0.-12,6.68,10.22,92545.50,758.11,0.0,0.0,0.0
40552,2,40552,0.-83,9.95,0.-1,0.5,0.-17,0.-12,6.68,10.23,92542.20,758.21,0.0,0.0,0.0
40598,2,40598,0.-63,9.99,0.13,0.4,0.-15,0.-11,6.62,10.23,92540.7,758.80,0.0,0.0,0.0
40641,2,40641,0.-76,9.94,0.13,0.4,0.-21,0.-10,6.62,10.23,92540.1,758.60,0.0,0.0,0.0
40687,2,40687,0.-88,9.99,0.11,0.5,0.-16,0.-10,6.68,10.23,92541.8,758.12,0.0,0.0,0.0
40733,2,40733,0.-89,9.94,0.13,0.5,0.-15,0.-8,6.62,10.23,92536.71,758.70,0.0,0.0,0.0
40779,2,40779,0.-78,10.4,0.11,0.4,0.-14,0.-6,6.75,10.24,92540.1,758.60,0.0,0.0,0.0
40825,2,40825,0.-59,10.5,0.11,0.4,0.-14,0.-6,6.68,10.23,92538.95,758.70,0.0,0.0,0.0
40872,2,40872,0.-78,10.0,0.-3,0.4,0.-13,0.-6,6.68,10.23,92538.89,758.70,0.0,0.0,0.0
40914,2,40914,0.-70,10.4,0.2,0.3,0.-15,0.-5,6.75,10.24,92542.20,758.90,0.0,0.0,0.0
40960,2,40960,0.-78,9.93,0.0,0.2,0.-19,0.-5,6.68,10.23,92538.95,758.12,0.0,0.0,0.0
41006,2,41006,0.-56,9.93,0.11,0.1,0.-19,0.-4,6.75,10.23,92541.8,758.31,0.0,0.0,0.0
41052,2,41052,0.-52,9.98,0.22,0.1,0.-20,0.-4,6.68,10.24,92535.64,758.61,0.0,0.0,0.0
41098,2,41098,0.-30,10.7,0.23,0.2,0.-21,0.-5,6.68,10.24,92540.1,759.0,0.0,0.0,0.0
41144,2,41144,0.-63,9.99,0.34,0.2,0.-16,0.-5,6.68,10.22,92535.69,759.9,0.0,0.0,0.0
41187,2,41187,0.-45,9.96,0.35,0.3,0.-13,0.-6,6.68,10.23,92534.57,758.41,0.0,0.0,0.0
41233,2,41233,0.-65,9.97,0.37,0.5,0.-13,0.-6,6.68,10.25,92545.46,758.31,0.0,0.0,0.0
41279,2,41279,0.-27,10.2,0.18,0.5,0.-5,0.-6,6.68,10.23,92534.57,758.2,0.0,0.0,0.0
41325,2,41325,0.-45,9.97,0.18,0.6,0.-10,0.-7,6.75,10.24,92533.46,758.70,0.0,0.0,0.0
41371,2,41371,0.-43,10.0,0.0,0.6,0.-4,0.-7,6.62,10.24,92542.20,758.41,0.0,0.0,0.0
41417,2,41417,0.-46,10.9,0.-3,0.5,0.-9,0.-7,6.68,10.23,92545.40,759.10,0.0,0.0,0.0
41460,2,41460,0.-58,10.1,0.2,0.4,0.-11,0.-8,6.62,10.23,92536.71,758.51,0.0,0.0,0.0
41506,2,41506,0.-56,9.97,0.27,0.5,0.-16,0.-8,6.62,10.24,92537.83,758.51,0.0,0.0,0.0
41552,2,41552,0.-44,9.98,0.44,0.5,0.-10,0.-8,6.68,10.24,92537.83,758.41,0.0,0.0,0.0
41598,2,41598,0.-51,9.95,0.4,0.6,0.-6,0.-8,6.68,10.25,92540.1,758.70,0.0,0.0,0.0
41644,2,41644,0.-53,9.95,0.-19,0.4,0.0,0.-8,6.68,10.24,92540.1,759.0,0.0,0.0,0.0
41690,2,41690,0.-51,10.11,1.18,0.2,0.-6,0.-7,6.68,10.24,92542.15,758.61,0.0,0.0,0.0
41738,2,41738,0.-51,9.92,0.21,0.2,0.-8,0.-7,6.75,10.24,92544.34,758.31,0.0,0.0,0.0
41784,2,41784,0.-19,10.16,0.44,0.2,0.6,0.-8,6.68,10.24,92531.27,758.12,0.0,0.0,0.0
41830,2,41830,0.-54,10.3,0.48,0.6,0.-7,0.-11,6.68,10.24,92536.71,759.0,0.0,0.0,0.0
41877,2,41877,0.-87,9.81,0.-6,0.6,0.5,0.-10,6.68,10.24,92535.64,757.73,0.0,0.0,0.0
41923,2,41923,0.-53,10.4,0.-2,0.3,0.33,0.-8,6.68,10.23,92544.34,758.12,0.0,0.0,0.0
41969,2,41969,0.-19,9.92,0.-8,0.2,0.24,0.-10,6.68,10.24,92545.46,758.51,0.0,0.0,0.0
42018,2,42018,0.-60,10.3,0.-22,0.1,0.9,0.-10,6.68,10.23,92544.39,758.31,0.0,0.0,0.0
42064,2,42064,0.-76,10.6,0.-9,0.0,0.2,0.-9,6.75,10.24,92543.27,758.70,0.0,0.0,0.0
42110,2,42110,0.-54,9.90,0.9,0.-1,0.-6,0.-7,6.68,10.24,92542.20,758.22,0.0,0.0,0.0
42156,2,42156,0.-37,10.10,0.0,0.-2,0.-4,0.-7,6.68,10.24,92542.20,758.70,0.0,0.0,0.0
42202,2,42202,0.-33,9.93,0.16,0.-3,0.-19,0.-9,6.68,10.24,92543.22,758.41,0.0,0.0,0.0
42248,2,42248,0.-62,10.1,0.33,0.-3,0.-17,0.-9,6.68,10.24,92538.89,758.90,0.0,0.0,0.0
42294,2,42296,0.-54,9.97,0.30,0.-4,0.-12,0.-8,6.68,10.25,92532.39,758.22,0.0,0.0,0.0
42337,2,42337,0.-19,9.96,0.62,0.-3,0.-15,0.-9,6.62,10.23,92536.71,758.12,0.0,0.0,0.0
42383,2,42383,0.-40,10.6,0.79,0.-1,0.-9,0.-10,6.68,10.24,92538.95,758.31,0.0,0.0,0.0
42429,2,42429,0.-51,9.91,0.61,0.0,0.0,0.-9,6.68,10.24,92543.27,758.41,0.0,0.0,0.0
42475,2,42475,0.-57,10.5,0.66,0.2,0.-7,0.-10,6.62,10.24,92540.1,758.80,0.0,0.0,0.0
42521,2,42521,0.-49,9.98,0.59,0.3,0.-6,0.-10,6.68,10.25,92545.46,758.51,0.0,0.0,0.0
42567,2,42567,0.-85,10.2,0.35,0.4,0.-10,0.-9,6.75,10.24,92539.96,758.80,0.0,0.0,0.0
42610,2,42610,0.-64,10.1,0.31,0.4,0.-8,0.-7,6.68,10.23,92538.95,758.22,0.0,0.0,0.0
42656,2,42656,0.-44,9.80,0.38,0.3,0.-9,0.-7,6.68,10.23,92540.1,758.61,0.0,0.0,0.0
42702,2,42702,0.-62,10.66,0.69,0.3,0.-11,0.-7,6.68,10.24,92546.57,758.22,0.0,0.0,0.0
42748,2,42748,0.-69,10.11,0.54,0.4,0.-9,0.-6,6.68,10.24,92536.76,758.41,0.0,0.0,0.0
42794,2,42794,0.-47,10.9,0.69,0.5,0.-10,0.-6,6.62,10.23,92543.27,758.21,0.0,0.0,0.0
42840,2,42840,0.-26,9.96,0.72,0.6,0.-8,0.-7,6.68,10.23,92540.1,758.51,0.0,0.0,0.0
42884,2,42884,0.-39,9.93,0.61,0.8,0.-7,0.-8,6.75,10.23,92540.7,758.60,0.0,0.0,0.0
42930,2,42930,0.-47,10.9,0.45,0.9,0.-3,0.-8,6.68,10.24,92533.46,758.70,0.0,0.0,0.0
42976,2,42976,0.-31,9.91,0.31,0.9,0.-4,0.-9,6.68,10.23,92542.20,758.51,0.0,0.0,0.0
43022,2,43022,0.-41,10.8,0.28,0.8,0.-4,0.-9,6.68,10.24,92544.43,759.10,0.0,0.0,0.0
43068,2,43068,0.-33,10.4,0.33,0.8,0.-5,0.-10,6.62,10.24,92539.96,758.22,0.0,0.0,0.0
43114,2,43114,0.-68,10.7,0.-8,0.8,0.-5,0.-10,6.62,10.23,92541.71,758.66,0.0,0.0,0.0
43351,2,43351,0.-81,10.9,0.33,0.0,0.-16,0.-9,6.68,10.14,92538.26,758.8,0.0,0.0,0.0
43397,2,43397,0.-60,10.6,0.69,0.1,0.-14,0.-7,6.68,10.17,92534.86,757.99,0.0,0.0,0.0
43443,2,43443,0.-66,10.1,0.58,0.3,0.-15,0.-7,6.68,10.19,92544.58,758.10,0.0,0.0,0.0
43489,2,43489,0.-85,9.98,0.46,0.4,0.-6,0.-5,6.68,10.20,92539.4,758.50,0.0,0.0,0.0
43535,2,43535,0.-30,9.98,0.33,0.5,0.-6,0.-5,6.75,10.21,92540.16,758.89,0.0,0.0,0.0
43581,2,43581,0.-32,10.9,0.45,0.5,0.-9,0.-6,6.62,10.21,92542.25,758.83,0.0,0.0,0.0
43956,2,43956,0.-44,10.0,0.4,0.5,0.-10,0.-7,6.68,10.12,92538.41,759.4,0.0,0.0,0.0
44002,2,44002,0.-29,10.4,0.11,0.4,0.-11,0.-7,6.75,10.15,92536.8,757.89,0.0,0.0,0.0
44048,2,44048,0.-37,9.99,0.33,0.4,0.-12,0.-8,6.68,10.18,92542.49,758.58,0.0,0.0,0.0
44094,2,44094,0.-51,9.97,0.42,0.5,0.-12,0.-8,6.68,10.19,92540.21,758.49,0.0,0.0,0.0
44140,2,44140,0.-27,10.9,0.52,0.5,0.-9,0.-7,6.68,10.20,92537.97,758.79,0.0,0.0,0.0
44186,2,44186,0.-45,10.0,0.45,0.7,0.-9,0.-8,6.68,10.21,92537.97,758.1,0.0,0.0,0.0
44426,2,44426,0.-3,10.6,0.20,0.7,0.-8,0.-8,6.75,10.12,92538.41,758.75,0.0,0.0,0.0
44472,2,44472,0.-12,10.4,0.-8,0.6,0.-8,0.-10,6.68,10.15,92534.96,758.87,0.0,0.0,0.0
44518,2,44518,0.-54,9.87,0.18,0.5,0.-10,0.-11,6.75,10.17,92533.80,758.68,0.0,0.0,0.0
44564,2,44564,0.-67,10.6,0.11,0.5,0.-22,0.-10,6.68,10.19,92544.58,758.49,0.0,0.0,0.0
44610,2,44610,0.-68,9.98,0.6,0.4,0.-9,0.-7,6.68,10.21,92534.67,758.40,0.0,0.0,0.0
44656,2,44656,0.-33,10.2,0.33,0.4,0.-9,0.-6,6.68,10.21,92541.23,758.70,0.0,0.0,0.0
45031,2,45031,0.-39,9.99,0.22,0.2,0.-10,0.-10,6.62,10.10,92540.74,758.25,0.0,0.0,0.0
45077,2,45077,0.-49,10.4,0.30,0.2,0.-12,0.-9,6.68,10.13,92542.68,758.47,0.0,0.0,0.0
45123,2,45123,0.-41,9.97,0.44,0.3,0.-9,0.-8,6.75,10.16,92538.17,758.97,0.0,0.0,0.0
45169,2,45169,0.-44,9.97,0.31,0.4,0.-8,0.-9,6.75,10.18,92544.63,758.88,0.0,0.0,0.0
45215,2,45215,0.-30,9.96,0.22,0.5,0.-8,0.-9,6.75,10.20,92545.70,758.69,0.0,0.0,0.0
45261,2,45261,0.-35,9.96,0.6,0.5,0.-7,0.-9,6.68,10.21,92535.79,758.79,0.0,0.0,0.0
45307,2,45500,0.-48,10.1,0.17,0.5,0.-7,0.-9,6.68,10.20,92536.32,759.13,0.0,0.0,0.0
45541,2,45541,0.-42,10.4,0.21,0.2,0.-10,0.-9,6.68,10.13,92544.92,758.17,0.0,0.0,0.0
45587,2,45587,0.-42,10.2,0.18,0.2,0.-12,0.-8,6.68,10.16,92538.21,758.18,0.0,0.0,0.0
45633,2,45633,0.-45,9.94,0.28,0.2,0.-12,0.-8,6.68,10.18,92544.63,758.39,0.0,0.0,0.0
45679,2,45679,0.-33,9.97,0.34,0.2,0.-11,0.-8,6.75,10.19,92540.25,758.39,0.0,0.0,0.0
45725,2,45725,0.-38,10.1,0.33,0.3,0.-11,0.-8,6.68,10.20,92537.97,758.69,0.0,0.0,0.0
45771,2,45771,0.-53,10.1,0.36,0.4,0.-9,0.-7,6.75,10.20,92536.46,757.86,0.0,0.0,0.0
46149,2,46149,0.-25,10.2,0.31,0.4,0.-9,0.-8,6.68,10.10,92538.41,758.36,0.0,0.0,0.0
46195,2,46195,0.-40,9.93,0.18,0.4,0.-9,0.-9,6.68,10.14,92544.82,758.47,0.0,0.0,0.0
46241,2,46241,0.-56,9.97,0.6,0.3,0.-9,0.-7,6.75,10.17,92538.17,758.67,0.0,0.0,0.0
46287,2,46287,0.-25,9.96,0.21,0.3,0.-10,0.-7,6.75,10.19,92540.25,758.78,0.0,0.0,0.0
46333,2,46333,0.-33,10.7,0.26,0.3,0.-10,0.-8,6.75,10.20,92538.2,758.69,0.0,0.0,0.0
46379,2,46379,0.-35,10.7,0.27,0.4,0.-9,0.-8,6.75,10.20,92538.2,757.91,0.0,0.0,0.0
46422,2,46422,0.-42,10.2,0.20,0.4,0.-8,0.-8,6.75,10.20,92531.42,758.30,0.0,0.0,0.0
46468,2,46468,0.-34,9.99,0.20,0.5,0.-9,0.-9,6.75,10.21,92537.97,758.50,0.0,0.0,0.0
46514,2,46514,0.-33,10.2,0.10,0.4,0.-9,0.-8,6.68,10.21,92537.92,759.28,0.0,0.0,0.0
46560,2,46560,0.-33,10.10,0.24,0.3,0.-8,0.-9,6.68,10.21,92533.60,758.50,0.0,0.0,0.0
46606,2,46606,0.-44,9.95,0.26,0.4,0.-9,0.-10,6.68,10.21,92537.92,759.28,0.0,0.0,0.0
46652,2,46652,0.-44,10.1,0.19,0.4,0.-9,0.-9,6.75,10.21,92535.74,758.40,0.0,0.0,0.0
46695,2,46695,0.-44,10.3,0.17,0.4,0.-8,0.-9,6.75,10.22,92537.92,758.89,0.0,0.0,0.0
46741,2,46741,0.-31,9.97,0.19,0.4,0.-9,0.-9,6.68,10.22,92544.48,759.9,0.0,0.0,0.0
46787,2,46787,0.-42,10.4,0.34,0.4,0.-10,0.-9,6.68,10.22,92543.36,758.21,0.0,0.0,0.0
46833,2,46833,0.-45,9.98,0.26,0.5,0.-6,0.-8,6.75,10.21,92535.74,758.80,0.0,0.0,0.0
46879,2,46879,0.-32,10.4,0.14,0.5,0.-6,0.-9,6.75,10.23,92542.25,758.99,0.0,0.0,0.0
46925,2,46925,0.-22,10.2,0.16,0.5,0.-5,0.-10,6.75,10.22,92544.39,758.21,0.0,0.0,0.0
46968,2,46968,0.-27,9.98,0.13,0.4,0.-7,0.-10,6.75,10.22,92536.71,758.90,0.0,0.0,0.0
47014,2,47014,0.-40,10.4,0.15,0.4,0.-7,0.-10,6.75,10.23,92537.88,758.31,0.0,0.0,0.0
47060,2,47060,0.-56,9.96,0.11,0.4,0.-9,0.-11,6.75,10.22,92535.64,758.60,0.0,0.0,0.0
47106,2,47106,0.-47,10.3,0.10,0.3,0.-7,0.-10,6.75,10.23,92535.69,758.51,0.0,0.0,0.0
47153,2,47153,0.-26,10.1,0.21,0.3,0.-6,0.-10,6.68,10.23,92541.13,759.38,0.0,0.0,0.0
47199,2,47199,0.-30,9.57,0.32,0.3,0.-9,0.-11,6.68,10.23,92541.13,758.31,0.0,0.0,0.0
47242,2,47242,0.-59,9.98,0.17,0.3,0.-8,0.-12,6.62,10.24,92542.20,758.70,0.0,0.0,0.0
47288,2,47288,0.-36,9.93,0.33,0.3,0.-6,0.-10,6.68,10.22,92533.50,758.60,0.0,0.0,0.0
47334,2,47334,0.-44,10.0,0.35,0.4,0.-8,0.-12,6.68,10.23,92531.32,758.60,0.0,0.0,0.0
47380,2,47380,0.-64,9.99,0.28,0.5,0.-9,0.-11,6.68,10.23,92537.88,758.80,0.0,0.0,0.0
47426,2,47426,0.-51,10.1,0.27,0.5,0.0,0.-10,6.75,10.23,92538.95,758.60,0.0,0.0,0.0
47472,2,47472,0.-63,9.97,0.16,0.6,0.0,0.-11,6.75,10.22,92533.50,758.60,0.0,0.0,0.0
47520,2,47520,0.-57,10.2,0.19,0.5,0.-3,0.-10,6.75,10.23,92542.20,758.41,0.0,0.0,0.0
47566,2,47566,0.-55,9.99,0.23,0.6,0.-4,0.-10,6.75,10.23,92530.21,758.41,0.0,0.0,0.0
47612,2,47612,0.-59,9.99,0.17,0.5,0.0,0.-9,6.68,10.23,92543.32,758.41,0.0,0.0,0.0
47658,2,47658,0.-53,10.8,0.16,0.6,0.0,0.-10,6.75,10.23,92540.1,758.80,0.0,0.0,0.0
47704,2,47704,0.-38,10.1,0.15,0.5,0.-3,0.-10,6.68,10.23,92541.13,758.21,0.0,0.0,0.0
47750,2,47750,0.-46,10.2,0.24,0.6,0.-5,0.-10,6.75,10.22,92541.13,758.60,0.0,0.0,0.0
47796,2,47798,0.-62,10.0,0.21,0.7,0.-3,0.-12,6.68,10.23,92540.11,758.90,0.0,0.0,0.0
47839,2,47839,0.-66,9.96,0.8,0.7,0.-2,0.-10,6.68,10.22,92540.7,758.40,0.0,0.0,0.0
47885,2,47885,0.-58,10.1,0.17,0.6,0.-3,0.-9,6.68,10.23,92542.25,759.0,0.0,0.0,0.0
47931,2,47931,0.-67,10.1,0.0,0.7,0.-1,0.-10,6.68,10.22,92542.25,758.60,0.0,0.0,0.0
47977,2,47977,0.-58,10.0,0.0,0.6,0.-2,0.-9,6.68,10.22,92534.62,758.80,0.0,0.0,0.0
48023,2,48023,0.-56,9.93,0.-11,0.5,0.-3,0.-9,6.75,10.23,92540.7,758.40,0.0,0.0,0.0
48069,2,48069,0.-60,9.99,0.-1,0.5,0.-7,0.-10,6.75,10.22,92542.30,758.31,0.0,0.0,0.0
48112,2,48112,0.-73,9.94,0.-4,0.4,0.-11,0.-10,6.75,10.22,92539.0,758.89,0.0,0.0,0.0
48159,2,48159,0.-81,10.13,0.-15,0.4,0.-13,0.-9,6.68,10.22,92534.62,758.70,0.0,0.0,0.0
48205,2,48205,0.-53,10.5,0.-37,0.3,0.-26,0.-9,6.75,10.22,92544.43,758.80,0.0,0.0,0.0
48251,2,48251,0.-85,10.1,0.-12,0.1,0.-10,0.-9,6.75,10.24,92537.92,758.99,0.0,0.0,0.0
48297,2,48297,0.-65,9.88,0.24,0.1,0.-10,0.-8,6.68,10.22,92539.0,758.50,0.0,0.0,0.0
48343,2,48343,0.-65,9.87,0.23,0.1,0.-9,0.-8,6.68,10.23,92541.23,758.70,0.0,0.0,0.0
48386,2,48386,0.-96,10.21,0.18,0.2,0.-9,0.-7,6.68,10.22,92534.62,758.80,0.0,0.0,0.0
48432,2,48432,0.-46,9.89,0.11,0.2,0.-6,0.-6,6.68,10.22,92545.55,758.11,0.0,0.0,0.0
48478,2,48478,0.-67,10.12,0.18,0.2,0.-5,0.-6,6.81,10.22,92539.0,759.28,0.0,0.0,0.0
48524,2,48524,0.-75,9.93,0.8,0.2,0.-6,0.-6,6.75,10.23,92536.81,758.21,0.0,0.0,0.0
48570,2,48570,0.-46,9.97,0.1,0.1,0.-3,0.-5,6.75,10.23,92537.88,758.50,0.0,0.0,0.0
48616,2,48616,0.-55,10.10,0.6,0.0,0.-5,0.-6,6.75,10.22,92536.81,758.21,0.0,0.0,0.0
48659,2,48659,0.-36,10.4,0.14,0.0,0.-6,0.-7,6.75,10.23,92535.74,758.70,0.0,0.0,0.0
48705,2,48705,0.-26,10.2,0.29,0.0,0.-10,0.-8,6.75,10.23,92532.44,758.31,0.0,0.0,0.0
48751,2,48751,0.-79,10.0,0.-8,0.1,0.-9,0.-8,6.75,10.22,92539.0,758.2,0.0,0.0,0.0
48797,2,48797,0.-65,10.15,0.23,0.1,0.-1,0.-9,6.75,10.23,92540.7,758.60,0.0,0.0,0.0
48843,2,48843,0.-62,10.1,0.22,0.2,0.-1,0.-8,6.75,10.22,92536.81,758.60,0.0,0.0,0.0
48889,2,48889,0.-44,9.85,0.20,0.2,0.1,0.-7,6.75,10.23,92542.20,758.21,0.0,0.0,0.0
48932,2,48932,0.-80,10.12,0.23,0.3,0.1,0.-7,6.81,10.23,92542.15,758.11,0.0,0.0,0.0
48978,2,48978,0.-40,10.1,0.40,0.3,0.4,0.-8,6.75,10.23,92541.13,758.2,0.0,0.0,0.0
49024,2,49024,0.-55,9.95,0.37,0.4,0.0,0.-8,6.68,10.23,92532.44,758.60,0.0,0.0,0.0
49070,2,49070,0.-51,10.10,0.30,0.4,0.5,0.-8,6.68,10.22,92535.69,758.60,0.0,0.0,0.0
49116,2,49116,0.-53,9.99,0.18,0.5,0.3,0.-9,6.75,10.23,92543.36,758.2,0.0,0.0,0.0
49163,2,49163,0.-55,10.4,0.23,0.5,0.0,0.-9,6.68,10.23,92540.7,758.70,0.0,0.0,0.0
49211,2,49211,0.-37,10.4,0.17,0.5,0.4,0.-9,6.75,10.23,92544.43,758.41,0.0,0.0,0.0
49257,2,49257,0.-64,10.3,0.4,0.5,0.1,0.-10,6.75,10.22,92542.20,758.70,0.0,0.0,0.0
49303,2,49303,0.-52,10.4,0.12,0.4,0.0,0.-10,6.75,10.22,92546.62,758.90,0.0,0.0,0.0
49349,2,49349,0.-74,9.95,0.1,0.4,0.-4,0.-10,6.75,10.22,92548.81,758.60,0.0,0.0,0.0
49395,2,49395,0.-56,10.4,0.17,0.4,0.-4,0.-9,6.75,10.23,92544.43,759.9,0.0,0.0,0.0
49441,2,49441,0.-70,9.96,0.14,0.3,0.-5,0.-9,6.75,10.22,92542.25,758.80,0.0,0.0,0.0
49487,2,49487,0.-54,10.0,0.22,0.3,0.-6,0.-8,6.75,10.23,92537.88,758.80,0.0,0.0,0.0
49530,2,49530,0.-62,9.99,0.18,0.3,0.-8,0.-9,6.75,10.22,92537.88,758.70,0.0,0.0,0.0
49576,2,49576,0.-65,10.1,0.14,0.3,0.-8,0.-9,6.75,10.22,92540.11,758.21,0.0,0.0,0.0
49622,2,49622,0.-57,10.0,0.22,0.3,0.-10,0.-8,6.75,10.21,92536.81,758.11,0.0,0.0,0.0
49668,2,49668,0.-57,9.98,0.18,0.3,0.-10,0.-8,6.68,10.23,92541.18,757.72,0.0,0.0,0.0
49714,2,49714,0.-56,10.2,0.31,0.3,0.-12,0.-9,6.75,10.23,92537.88,758.70,0.0,0.0,0.0
49760,2,49760,0.-63,10.4,0.25,0.3,0.-12,0.-9,6.68,10.22,92540.11,758.21,0.0,0.0,0.0
49803,2,49803,0.-63,9.97,0.21,0.3,0.-11,0.-9,6.75,10.22,92536.81,758.40,0.0,0.0,0.0
49849,2,49849,0.-67,10.2,0.23,0.4,0.-11,0.-9,6.68,10.23,92539.0,758.31,0.0,0.0,0.0
49895,2,49895,0.-66,10.0,0.17,0.4,0.-12,0.-8,6.68,10.21,92543.36,758.40,0.0,0.0,0.0
49941,2,49941,0.-59,9.98,0.29,0.4,0.-14,0.-8,6.75,10.22,92542.25,758.31,0.0,0.0,0.0
49987,2,49987,0.-62,10.0,0.22,0.4,0.-11,0.-8,6.75,10.22,92539.0,758.60,0.0,0.0,0.0
50033,2,50033,0.-56,9.95,0.28,0.5,0.-14,0.-9,6.81,10.22,92539.0,758.60,0.0,0.0,0.0
50076,2,50076,0.-67,10.3,0.22,0.5,0.-12,0.-9,6.75,10.22,92537.92,758.50,0.0,0.0,0.0
50122,2,50122,0.-53,9.98,0.35,0.5,0.-12,0.-9,6.81,10.22,92540.7,758.99,0.0,0.0,0.0
50169,2,50169,0.-68,10.1,0.22,0.6,0.-13,0.-9,6.75,10.22,92539.0,758.40,0.0,0.0,0.0
50215,2,50215,0.-69,9.96,0.23,0.6,0.-13,0.-9,6.75,10.22,92536.81,758.60,0.0,0.0,0.0
50261,2,50261,0.-70,9.98,0.14,0.5,0.-11,0.-8,6.75,10.22,92534.62,758.80,0.0,0.0,0.0
50307,2,50307,0.-50,9.97,0.22,0.5,0.-13,0.-8,6.81,10.22,92535.69,757.91,0.0,0.0,0.0
50350,2,50350,0.-52,9.94,0.25,0.6,0.-16,0.-9,6.75,10.23,92536.85,758.60,0.0,0.0,0.0
50396,2,50396,0.-64,10.3,0.28,0.6,0.-13,0.-9,6.75,10.22,92535.74,758.41,0.0,0.0,0.0
50442,2,50442,0.-73,9.92,0.22,0.7,0.-14,0.-10,6.75,10.22,92542.25,758.80,0.0,0.0,0.0
50488,2,50488,0.-74,10.2,0.21,0.8,0.-11,0.-9,6.75,10.22,92542.30,758.70,0.0,0.0,0.0
50547,2,50547,0.-56,10.4,0.14,0.8,0.-11,0.-9,6.75,10.21,92539.4,758.40,0.0,0.0,0.0
50593,2,50593,0.-79,10.1,0.0,0.8,0.-12,0.-10,6.75,10.21,92543.42,758.39,0.0,0.0,0.0
50636,2,50636,0.-76,9.99,0.7,0.8,0.-16,0.-9,6.75,10.20,92536.85,758.50,0.0,0.0,0.0
50682,2,50682,0.-64,9.97,0.14,0.7,0.-16,0.-8,6.81,10.21,92545.55,758.30,0.0,0.0,0.0
50728,2,50728,0.-66,10.1,0.2,0.7,0.-15,0.-8,6.75,10.21,92536.81,759.9,0.0,0.0,0.0
50774,2,50774,0.-71,9.99,0.9,0.7,0.-20,0.-8,6.75,10.23,92543.36,758.21,0.0,0.0,0.0
50820,2,50820,0.-63,10.4,0.6,0.7,0.-20,0.-8,6.75,10.22,92548.81,758.21,0.0,0.0,0.0
50866,2,50866,0.-68,10.1,0.5,0.7,0.-20,0.-7,6.75,10.22,92542.25,758.21,0.0,0.0,0.0
50909,2,50909,0.-64,10.5,0.10,0.7,0.-20,0.-7,6.75,10.22,92540.7,759.19,0.0,0.0,0.0
50955,2,50955,0.-62,9.99,0.-1,0.8,0.-18,0.-8,6.75,10.22,92535.69,758.90,0.0,0.0,0.0
51001,2,51001,0.-52,9.89,0.6,0.7,0.-18,0.-8,6.75,10.23,92542.25,758.60,0.0,0.0,0.0
51047,2,51047,0.-54,9.97,0.-3,0.8,0.-17,0.-9,6.75,10.23,92541.13,758.40,0.0,0.0,0.0
51093,2,51093,0.-53,9.97,0.2,0.8,0.-17,0.-10,6.75,10.22,92537.88,758.11,0.0,0.0,0.0
51139,2,51139,0.-67,9.98,0.-7,0.8,0.-18,0.-10,6.68,10.22,92539.0,758.50,0.0,0.0,0.0
51188,2,51188,0.-71,9.93,0.-14,0.7,0.-15,0.-10,6.75,10.21,92541.18,758.21,0.0,0.0,0.0
51234,2,51234,0.-70,10.2,0.0,0.7,0.-19,0.-10,6.75,10.22,92541.18,758.40,0.0,0.0,0.0
51280,2,51280,0.-61,9.97,0.-7,0.7,0.-15,0.-10,6.75,10.22,92542.30,757.82,0.0,0.0,0.0
51326,2,51326,0.-66,10.1,0.0,0.7,0.-16,0.-10,6.75,10.22,92541.18,759.9,0.0,0.0,0.0
51372,2,51372,0.-75,9.95,0.0,0.8,0.-16,0.-10,6.81,10.21,92536.85,758.30,0.0,0.0,0.0
51418,2,51418,0.-78,9.99,0.0,0.7,0.-12,0.-10,6.75,10.21,92537.88,758.30,0.0,0.0,0.0
51466,2,51466,0.-80,10.2,0.-10,0.8,0.-9,0.-10,6.75,10.21,92536.85,758.70,0.0,0.0,0.0
51512,2,51512,0.-77,9.96,0.-11,0.8,0.-7,0.-10,6.75,10.22,92542.30,758.50,0.0,0.0,0.0
51558,2,51558,0.-80,9.96,0.-23,0.9,0.-6,0.-10,6.75,10.22,92541.18,758.30,0.0,0.0,0.0
51604,2,51604,0.-80,10.2,0.-32,0.8,0.-2,0.-9,6.75,10.22,92537.88,758.79,0.0,0.0,0.0
51650,2,51650,0.-79,9.95,0.-43,0.7,0.-3,0.-9,6.75,10.22,92540.7,758.50,0.0,0.0,0.0
51696,2,51696,0.-73,10.2,0.-31,0.6,0.-5,0.-9,6.81,10.22,92540.11,758.79,0.0,0.0,0.0
51742,2,51744,0.-79,10.0,0.-37,0.5,0.-3,0.-9,6.75,10.21,92537.92,758.30,0.0,0.0,0.0
51785,2,51785,0.-94,10.4,0.-33,0.4,0.-5,0.-9,6.75,10.21,92536.85,758.30,0.0,0.0,0.0
51831,2,51831,0.-91,9.95,0.-33,0.3,0.-6,0.-9,6.75,10.21,92536.85,758.70,0.0,0.0,0.0
51877,2,51877,0.-95,9.96,0.-37,0.2,0.-4,0.-7,6.68,10.22,92539.0,758.60,0.0,0.0,0.0
51923,2,51923,0.-94,9.99,0.-41,0.1,0.-6,0.-6,6.75,10.21,92545.55,758.40,0.0,0.0,0.0
51969,2,51969,0.-60,10.0,0.-33,0.0,0.-4,0.-6,6.68,10.21,92541.18,758.21,0.0,0.0,0.0
52015,2,52015,0.-56,9.98,0.-18,0.0,0.-7,0.-7,6.75,10.21,92543.36,758.70,0.0,0.0,0.0
52058,2,52058,0.-47,9.97,0.-20,0.0,0.-4,0.-8,6.75,10.21,92545.60,758.21,0.0,0.0,0.0
52104,2,52104,0.-61,10.0,0.-29,0.0,0.-4,0.-9,6.81,10.22,92536.85,758.70,0.0,0.0,0.0
52150,2,52150,0.-52,9.98,0.-11,0.0,0.-9,0.-10,6.68,10.22,92542.30,758.31,0.0,0.0,0.0
52197,2,52197,0.-93,9.98,0.-15,0.0,0.-10,0.-10,6.68,10.21,92540.11,758.50,0.0,0.0,0.0
52243,2,52243,0.-94,9.99,0.-4,0.0,0.-8,0.-9,6.68,10.22,92535.74,758.70,0.0,0.0,0.0
52289,2,52289,-1.-6,9.95,0.-19,0.-1,0.-7,0.-8,6.75,10.21,92544.48,758.79,0.0,0.0,0.0
52332,2,52332,0.-81,9.98,0.-12,0.-2,0.-10,0.-6,6.68,10.20,92542.35,758.30,0.0,0.0,0.0
52378,2,52378,0.-70,9.97,0.-1,0.-2,0.-10,0.-6,6.75,10.21,92537.92,758.60,0.0,0.0,0.0
52424,2,52424,0.-77,9.98,0.-1,0.-2,0.-10,0.-6,6.75,10.22,92540.11,758.60,0.0,0.0,0.0
52470,2,52470,0.-73,9.94,0.-6,0.-3,0.-10,0.-6,6.75,10.22,92540.11,758.70,0.0,0.0,0.0
52516,2,52516,0.-58,9.95,0.0,0.-4,0.-10,0.-6,6.81,10.22,92543.36,758.50,0.0,0.0,0.0
52562,2,52562,0.-61,10.4,0.7,0.-5,0.-11,0.-7,6.81,10.21,92537.97,758.50,0.0,0.0,0.0
52605,2,52605,0.-43,9.99,0.19,0.-5,0.-12,0.-8,6.75,10.21,92537.92,758.30,0.0,0.0,0.0
52651,2,52651,0.-44,9.98,0.54,0.-5,0.-12,0.-10,6.75,10.21,92537.92,758.30,0.0,0.0,0.0
52697,2,52697,0.-68,10.0,0.78,0.-2,0.-11,0.-11,6.75,10.22,92537.92,757.72,0.0,0.0,0.0
52743,2,52743,0.-78,9.93,0.76,0.0,0.-8,0.-11,6.75,10.21,92542.35,758.30,0.0,0.0,0.0
52789,2,52789,-1.-10,9.98,0.53,0.2,0.-5,0.-9,6.75,10.23,92535.69,758.99,0.0,0.0,0.0
52835,2,52835,-1.-13,9.93,0.38,0.4,0.-2,0.-7,6.68,10.21,92542.35,758.79,0.0,0.0,0.0
52878,2,52878,0.-75,9.95,0.42,0.4,0.-3,0.-5,6.68,10.22,92537.92,758.30,0.0,0.0,0.0
52924,2,52924,0.-75,9.93,0.31,0.5,0.-3,0.-5,6.68,10.21,92539.4,758.50,0.0,0.0,0.0
52970,2,52970,0.-56,10.2,0.18,0.4,0.-6,0.-5,6.75,10.21,92534.67,758.30,0.0,0.0,0.0
53016,2,53016,0.-49,10.2,0.18,0.4,0.-7,0.-6,6.68,10.22,92539.0,758.60,0.0,0.0,0.0
53062,2,53062,0.-41,10.2,0.18,0.3,0.-8,0.-7,6.75,10.22,92540.11,758.30,0.0,0.0,0.0
53108,2,53108,0.-63,10.11,0.24,0.2,0.-11,0.-8,6.75,10.22,92537.92,758.30,0.0,0.0,0.0
53151,2,53151,0.-52,10.31,0.38,0.1,0.-11,0.-8,6.81,10.21,92540.11,758.30,0.0,0.0,0.0
53198,2,53198,0.-60,9.97,0.58,0.3,0.-10,0.-9,6.75,10.22,92545.60,758.31,0.0,0.0,0.0
53244,2,53244,0.-67,10.0,0.50,0.4,0.-10,0.-9,6.75,10.22,92543.36,758.50,0.0,0.0,0.0
53290,2,53290,0.-65,9.95,0.60,0.5,0.-8,0.-10,6.75,10.21,92536.81,758.60,0.0,0.0,0.0
53336,2,53336,0.-96,10.1,0.37,0.7,0.-5,0.-9,6.75,10.22,92536.85,758.40,0.0,0.0,0.0
53382,2,53382,0.-83,10.1,0.20,0.7,0.-7,0.-7,6.75,10.20,92541.23,758.50,0.0,0.0,0.0
53425,2,53425,0.-59,9.99,0.19,0.7,0.-9,0.-7,6.68,10.20,92530.35,758.89,0.0,0.0,0.0
53471,2,53471,0.-56,9.92,0.32,0.6,0.-9,0.-7,6.68,10.21,92532.49,759.28,0.0,0.0,0.0
53517,2,53517,0.-50,9.96,0.18,0.6,0.-9,0.-7,6.68,10.20,92537.97,758.79,0.0,0.0,0.0
53563,2,53563,0.-90,10.2,0.2,0.5,0.-11,0.-8,6.75,10.21,92541.23,757.62,0.0,0.0,0.0
53609,2,53609,0.-83,10.0,0.15,0.5,0.-14,0.-7,6.75,10.21,92532.49,758.21,0.0,0.0,0.0
53655,2,53655,0.-35,10.2,0.38,0.6,0.-10,0.-8,6.75,10.22,92546.67,758.70,0.0,0.0,0.0
53698,2,53698,-1.-2,9.35,0.24,0.6,0.-10,0.-8,6.81,10.21,92537.92,758.21,0.0,0.0,0.0
53744,2,53744,0.-94,10.36,0.22,0.6,0.-14,0.-6,6.75,10.21,92547.74,758.60,0.0,0.0,0.0
53790,2,53790,0.-47,10.7,0.35,0.6,0.-13,0.-7,6.75,10.21,92544.48,758.39,0.0,0.0,0.0
53836,2,53836,0.-78,10.7,0.6,0.7,0.-12,0.-7,6.75,10.21,92537.92,758.79,0.0,0.0,0.0
53882,2,53882,0.-60,10.6,0.21,0.6,0.-15,0.-6,6.81,10.20,92542.30,758.70,0.0,0.0,0.0
53928,2,53928,0.-45,9.88,0.31,0.6,0.-15,0.-7,6.81,10.21,92540.11,757.92,0.0,0.0,0.0
53971,2,53971,0.-56,9.94,0.11,0.6,0.-12,0.-7,6.68,10.21,92537.92,758.50,0.0,0.0,0.0
54017,2,54017,0.-52,10.8,0.21,0.6,0.-13,0.-8,6.75,10.22,92537.92,758.60,0.0,0.0,0.0
54063,2,54063,0.-47,10.6,0.25,0.6,0.-14,0.-8,6.75,10.21,92543.42,758.60,0.0,0.0,0.0
54109,2,54109,0.-47,10.3,0.10,0.6,0.-12,0.-9,6.68,10.22,92542.30,758.30,0.0,0.0,0.0
54155,2,54155,0.-55,10.3,0.1,0.6,0.-14,0.-9,6.68,10.22,92539.4,758.60,0.0,0.0,0.0
54202,2,54202,0.-64,10.7,0.-4,0.5,0.-17,0.-8,6.75,10.21,92542.30,758.79,0.0,0.0,0.0
54250,2,54250,0.-58,9.96,0.11,0.4,0.-22,0.-8,6.68,10.22,92544.48,758.1,0.0,0.0,0.0
54296,2,54296,0.-68,10.0,0.12,0.3,0.-19,0.-7,6.75,10.21,92541.23,758.79,0.0,0.0,0.0
54342,2,54342,0.-63,10.3,0.29,0.3,0.-15,0.-7,6.75,10.21,92540.11,758.50,0.0,0.0,0.0
54388,2,54388,0.-52,10.4,0.33,0.5,0.-11,0.-7,6.75,10.21,92542.35,758.70,0.0,0.0,0.0
54434,2,54434,0.-56,10.2,0.18,0.5,0.-12,0.-7,6.75,10.20,92543.36,758.60,0.0,0.0,0.0
54480,2,54480,0.-76,9.99,0.11,0.6,0.-17,0.-7,6.68,10.21,92544.48,758.50,0.0,0.0,0.0
54528,2,54528,0.-52,9.97,0.24,0.5,0.-12,0.-6,6.75,10.21,92540.11,758.89,0.0,0.0,0.0
54574,2,54574,0.-66,9.97,0.-7,0.5,0.-17,0.-6,6.68,10.21,92539.4,758.60,0.0,0.0,0.0
54620,2,54620,0.-39,10.2,0.2,0.5,0.-14,0.-6,6.75,10.21,92545.60,758.40,0.0,0.0,0.0
54666,2,54666,0.-49,10.2,0.-2,0.3,0.-17,0.-6,6.75,10.21,92535.74,758.69,0.0,0.0,0.0
54712,2,54712,0.-15,10.9,0.23,0.3,0.-14,0.-7,6.75,10.22,92540.11,758.40,0.0,0.0,0.0
54758,2,54758,0.-42,9.98,0.22,0.3,0.-14,0.-9,6.75,10.22,92542.35,758.21,0.0,0.0,0.0
54804,2,54804,0.-44,9.97,0.25,0.3,0.-12,0.-10,6.75,10.21,92543.42,758.40,0.0,0.0,0.0
54847,2,54847,0.-49,10.6,0.27,0.4,0.-12,0.-10,6.75,10.20,92536.90,758.20,0.0,0.0,0.0
54893,2,54893,0.-52,10.0,0.20,0.4,0.-10,0.-10,6.68,10.21,92537.92,758.50,0.0,0.0,0.0
54939,2,54939,0.-45,9.98,0.18,0.4,0.-16,0.-11,6.75,10.21,92540.16,758.60,0.0,0.0,0.0
54985,2,54985,0.-47,9.98,0.14,0.4,0.-15,0.-11,6.81,10.21,92542.30,758.79,0.0,0.0,0.0
55031,2,55031,0.-53,10.4,0.20,0.4,0.-9,0.-11,6.81,10.21,92543.42,758.40,0.0,0.0,0.0
55077,2,55077,0.-76,9.99,0.12,0.4,0.-11,0.-11,6.87,10.21,92538.2,758.30,0.0,0.0,0.0
55120,2,55120,0.-83,9.97,0.20,0.4,0.-13,0.-10,6.81,10.20,92544.48,758.40,0.0,0.0,0.0
55166,2,55166,0.-81,10.1,0.39,0.4,0.-15,0.-8,6.81,10.21,92537.97,758.89,0.0,0.0,0.0
55213,2,55213,-1.-2,9.99,0.22,0.5,0.-13,0.-7,6.81,10.22,92535.74,759.18,0.0,0.0,0.0
55259,2,55259,0.-60,9.97,0.25,0.5,0.-10,0.-5,6.75,10.21,92544.48,758.30,0.0,0.0,0.0
55305,2,55305,0.-28,10.1,0.48,0.6,0.-14,0.-6,6.81,10.21,92540.11,758.79,0.0,0.0,0.0
55351,2,55351,0.-43,9.95,0.23,0.8,0.-13,0.-7,6.75,10.22,92536.85,758.40,0.0,0.0,0.0
55394,2,55394,0.-34,10.2,0.8,0.8,0.-12,0.-9,6.68,10.20,92541.23,758.50,0.0,0.0,0.0
55440,2,55440,0.-20,10.3,0.8,0.8,0.-25,0.-10,6.75,10.22,92545.60,758.20,0.0,0.0,0.0
55486,2,55486,0.-56,9.98,0.-2,0.8,0.-30,0.-12,6.75,10.21,92536.85,758.10,0.0,0.0,0.0
55532,2,55532,0.-64,9.97,0.3,0.7,0.-18,0.-12,6.81,10.21,92535.79,758.69,0.0,0.0,0.0
55578,2,55578,0.-62,9.97,0.4,0.7,0.-19,0.-12,6.75,10.21,92536.85,758.60,0.0,0.0,0.0
55624,2,55624,0.-59,9.99,0.18,0.7,0.-17,0.-12,6.81,10.21,92544.48,758.98,0.0,0.0,0.0
55667,2,55667,0.-89,9.93,0.-2,0.7,0.-20,0.-12,6.81,10.21,92541.28,758.60,0.0,0.0,0.0
55713,2,55713,-1.-5,9.96,0.-3,0.6,0.-17,0.-10,6.81,10.21,92537.97,758.89,0.0,0.0,0.0
55759,2,55759,0.-68,10.1,0.-3,0.5,0.-8,0.-9,6.81,10.22,92542.35,758.21,0.0,0.0,0.0
55805,2,55805,0.-54,9.98,0.-10,0.4,0.-6,0.-10,6.81,10.21,92537.97,758.10,0.0,0.0,0.0
55851,2,55851,0.-87,9.96,0.-12,0.3,0.2,0.-10,6.81,10.21,92542.35,758.50,0.0,0.0,0.0
55897,2,55897,-1.-13,9.95,0.-32,0.1,0.7,0.-9,6.75,10.21,92541.23,758.30,0.0,0.0,0.0
55940,2,55940,0.-79,10.3,0.-8,0.0,0.3,0.-7,6.75,10.20,92545.65,758.39,0.0,0.0,0.0
55986,2,55986,-1.-4,9.97,0.-6,0.0,0.-10,0.-6,6.75,10.20,92536.85,758.20,0.0,0.0,0.0
56032,2,56032,0.-73,9.98,0.-5,0.-2,0.-1,0.-4,6.81,10.21,92537.97,757.62,0.0,0.0,0.0
56078,2,56078,0.-65,10.3,0.14,0.-3,0.-9,0.-4,6.81,10.21,92540.16,759.18,0.0,0.0,0.0
56124,2,56124,0.-59,9.91,0.44,0.-2,0.-25,0.-4,6.75,10.20,92536.90,758.59,0.0,0.0,0.0
56170,2,56170,0.-65,9.97,0.37,0.0,0.-9,0.-4,6.75,10.21,92543.46,758.49,0.0,0.0,0.0
56214,2,56214,0.-63,9.96,0.19,0.0,0.18,0.-2,6.81,10.21,92532.53,758.10,0.0,0.0,0.0
56260,2,56260,0.-36,9.98,0.48,0.0,0.11,0.-3,6.81,10.20,92544.53,758.29,0.0,0.0,0.0
56306,2,56306,0.-27,9.95,0.66,0.2,0.8,0.-4,6.87,10.20,92537.97,758.60,0.0,0.0,0.0
56352,2,56352,0.-47,9.99,0.34,0.5,0.9,0.-5,6.87,10.21,92537.97,758.69,0.0,0.0,0.0
56398,2,56398,0.-25,9.75,0.16,0.5,0.-4,0.-7,6.75,10.21,92539.4,758.69,0.0,0.0,0.0
56444,2,56444,0.-23,10.7,0.14,0.5,0.-27,0.-8,6.81,10.21,92544.53,758.60,0.0,0.0,0.0
56487,2,56487,0.-53,9.97,0.26,0.4,0.-22,0.-9,6.81,10.21,92541.18,759.8,0.0,0.0,0.0
56533,2,56533,0.-29,10.1,0.38,0.5,0.4,0.-10,6.81,10.21,92535.79,758.59,0.0,0.0,0.0
56579,2,56579,0.-50,10.3,0.20,0.5,0.10,0.-11,6.81,10.21,92542.30,758.50,0.0,0.0,0.0
56625,2,56625,0.-39,10.6,0.-12,0.4,0.18,0.-11,6.75,10.21,92542.30,758.98,0.0,0.0,0.0
56671,2,56671,0.-44,9.99,0.-13,0.2,0.0,0.-12,6.81,10.20,92541.23,758.89,0.0,0.0,0.0
56717,2,56717,-1.-11,10.15,0.-21,0.0,0.-11,0.-11,6.75,10.20,92534.67,758.21,0.0,0.0,0.0
56760,2,56760,0.-79,10.19,0.12,0.-1,0.5,0.-9,6.81,10.20,92539.4,758.40,0.0,0.0,0.0
56806,2,56806,0.-53,10.10,0.15,0.-3,0.10,0.-8,6.75,10.21,92537.97,758.69,0.0,0.0,0.0
56852,2,56852,0.-41,9.95,0.21,0.-4,0.-10,0.-10,6.81,10.22,92540.16,758.69,0.0,0.0,0.0
56898,2,56898,0.-32,10.5,0.66,0.-4,0.-32,0.-11,6.81,10.21,92542.35,758.1,0.0,0.0,0.0
56944,2,56944,0.-93,9.95,0.49,0.-2,0.-35,0.-12,6.81,10.20,92544.48,758.59,0.0,0.0,0.0
56990,2,56990,-1.-3,9.95,0.42,0.-1,0.-9,0.-10,6.87,10.21,92543.42,758.41,0.0,0.0,0.0
57033,2,57033,0.-47,9.92,0.61,0.-2,0.-16,0.-8,6.81,10.21,92536.81,758.50,0.0,0.0,0.0
57079,2,57079,0.-32,10.5,0.92,0.-1,0.-52,0.-10,6.75,10.21,92532.49,758.70,0.0,0.0,0.0
57125,2,57125,-1.-6,9.92,1.24,0.3,0.-17,0.-10,6.81,10.21,92532.49,758.20,0.0,0.0,0.0
57171,2,57171,0.-84,9.90,0.84,0.6,0.28,0.-6,6.75,10.22,92540.11,758.40,0.0,0.0,0.0
57218,2,57218,0.-44,9.99,0.68,0.7,0.40,0.-5,6.87,10.22,92539.4,758.60,0.0,0.0,0.0
57264,2,57264,0.-45,10.3,0.55,0.8,0.13,0.-7,6.81,10.22,92541.18,758.21,0.0,0.0,0.0
57312,2,57312,0.-66,10.5,0.36,0.9,0.-15,0.-10,6.75,10.21,92541.18,758.30,0.0,0.0,0.0
57358,2,57358,0.-65,9.93,0.19,0.8,0.-7,0.-9,6.75,10.21,92543.36,758.30,0.0,0.0,0.0
57404,2,57404,0.-33,10.5,0.38,0.6,0.-7,0.-10,6.81,10.21,92539.4,758.69,0.0,0.0,0.0
57450,2,57450,0.-73,9.96,0.26,0.6,0.-6,0.-11,6.81,10.21,92535.74,758.70,0.0,0.0,0.0
57496,2,57496,0.-67,9.99,0.25,0.5,0.-5,0.-10,6.81,10.20,92539.4,758.69,0.0,0.0,0.0
57542,2,57542,0.-85,9.94,0.35,0.5,0.-8,0.-10,6.75,10.20,92540.16,758.30,0.0,0.0,0.0
57590,2,57590,0.-84,9.92,0.25,0.5,0.-3,0.-10,6.75,10.20,92540.16,758.89,0.0,0.0,0.0
57636,2,57636,0.-64,9.96,0.43,0.5,0.-10,0.-9,6.75,10.21,92546.71,758.11,0.0,0.0,0.0
57682,2,57682,0.-65,9.99,0.43,0.5,0.-3,0.-9,6.68,10.21,92537.97,758.20,0.0,0.0,0.0
57728,2,57728,0.-63,9.96,0.30,0.6,0.-5,0.-9,6.75,10.21,92532.53,758.50,0.0,0.0,0.0
57774,2,57774,0.-90,10.0,0.29,0.6,0.-11,0.-9,6.75,10.20,92539.9,758.20,0.0,0.0,0.0
57820,2,57820,0.-70,9.94,0.27,0.7,0.-5,0.-8,6.75,10.20,92534.72,758.20,0.0,0.0,0.0
57866,2,57866,0.-56,10.3,0.14,0.6,0.-5,0.-8,6.81,10.21,92535.84,758.10,0.0,0.0,0.0
57909,2,57909,0.-71,10.7,0.12,0.6,0.-9,0.-9,6.87,10.20,92537.97,758.59,0.0,0.0,0.0
57955,2,57955,0.-59,10.0,0.5,0.4,0.-5,0.-9,6.81,10.20,92540.21,758.20,0.0,0.0,0.0
58001,2,58001,0.-73,10.1,0.36,0.3,0.-17,0.-9,6.75,10.21,92536.90,758.30,0.0,0.0,0.0
58047,2,58047,0.-85,9.89,0.29,0.3,0.-8,0.-8,6.75,10.21,92542.35,758.69,0.0,0.0,0.0
58093,2,58093,0.-60,10.1,0.35,0.4,0.-10,0.-8,6.87,10.20,92539.4,758.59,0.0,0.0,0.0
58139,2,58139,0.-75,9.95,0.33,0.4,0.-9,0.-8,6.75,10.20,92540.21,758.39,0.0,0.0,0.0
58182,2,58182,0.-70,10.0,0.28,0.5,0.-5,0.-8,6.81,10.20,92537.97,758.98,0.0,0.0,0.0
58229,2,58229,0.-90,9.99,0.37,0.5,0.-10,0.-8,6.75,10.20,92542.35,758.59,0.0,0.0,0.0
58275,2,58275,0.-71,9.91,0.46,0.6,0.-5,0.-6,6.81,10.21,92542.35,758.69,0.0,0.0,0.0
58321,2,58321,0.-70,9.93,0.44,0.7,0.-5,0.-5,6.81,10.20,92535.79,758.79,0.0,0.0,0.0
58367,2,58367,0.-69,9.96,0.29,0.8,0.-4,0.-5,6.75,10.20,92541.28,758.39,0.0,0.0,0.0
58413,2,58413,0.-51,9.95,0.16,0.8,0.-2,0.-5,6.87,10.20,92540.21,758.30,0.0,0.0,0.0
58456,2,58456,0.-33,10.6,0.27,0.8,0.-3,0.-6,6.81,10.20,92541.28,758.59,0.0,0.0,0.0
58502,2,58502,0.-62,9.93,0.38,0.9,0.-5,0.-7,6.81,10.20,92542.35,758.98,0.0,0.0,0.0
58548,2,58548,-1.0,9.94,0.0,0.9,0.-1,0.-6,6.81,10.21,92537.97,758.59,0.0,0.0,0.0
58594,2,58594,0.-63,10.0,0.-14,0.8,0.-7,0.-5,6.81,10.20,92537.97,758.40,0.0,0.0,0.0
58640,2,58640,0.-32,9.89,0.-24,0.6,0.-9,0.-5,6.81,10.20,92535.79,758.20,0.0,0.0,0.0
58686,2,58686,0.-33,9.92,0.-29,0.4,0.-9,0.-7,6.81,10.21,92539.4,758.50,0.0,0.0,0.0
58729,2,58729,0.-19,10.4,0.-2,0.1,0.-10,0.-8,6.81,10.20,92535.79,758.69,0.0,0.0,0.0
58775,2,58775,0.-46,10.1,0.11,0.1,0.-11,0.-11,6.81,10.21,92545.60,758.69,0.0,0.0,0.0
58821,2,58821,0.-65,9.71,0.23,0.1,0.-10,0.-11,6.81,10.20,92539.4,758.30,0.0,0.0,0.0
58867,2,58867,0.-72,10.6,0.22,0.1,0.-10,0.-10,6.81,10.21,92539.4,758.20,0.0,0.0,0.0
58913,2,58913,0.-67,9.92,0.36,0.2,0.-8,0.-10,6.87,10.22,92535.79,758.79,0.0,0.0,0.0
58959,2,58959,0.-59,10.0,0.32,0.3,0.-7,0.-10,6.81,10.21,92540.16,758.89,0.0,0.0,0.0
59002,2,59002,0.-68,9.99,0.25,0.4,0.-5,0.-10,6.87,10.21,92535.79,758.99,0.0,0.0,0.0
59048,2,59048,0.-63,10.4,0.23,0.4,0.-5,0.-10,6.75,10.21,92533.56,758.40,0.0,0.0,0.0
59094,2,59094,0.-69,9.95,0.7,0.4,0.-5,0.-10,6.81,10.21,92541.23,758.89,0.0,0.0,0.0
59140,2,59140,0.-71,9.99,0.8,0.4,0.-6,0.-10,6.81,10.21,92541.23,758.89,0.0,0.0,0.0
59186,2,59186,0.-69,10.25,0.-6,0.3,0.-5,0.-10,6.81,10.21,92536.85,758.11,0.0,0.0,0.0
59233,2,59233,0.-58,10.4,0.14,0.3,0.-9,0.-10,6.81,10.21,92534.67,758.40,0.0,0.0,0.0
59281,2,59281,0.-78,10.7,0.0,0.2,0.-8,0.-10,6.81,10.21,92534.67,758.79,0.0,0.0,0.0
59327,2,59327,0.-58,10.0,0.23,0.1,0.-9,0.-10,6.81,10.21,92534.67,758.79,0.0,0.0,0.0
59373,2,59373,0.-44,9.99,0.38,0.2,0.-10,0.-11,6.81,10.21,92540.11,758.70,0.0,0.0,0.0
59419,2,59419,0.-80,10.0,0.24,0.3,0.-9,0.-12,6.81,10.21,92542.30,758.40,0.0,0.0,0.0
59465,2,59465,0.-81,9.95,0.17,0.2,0.-8,0.-10,6.75,10.21,92545.55,758.89,0.0,0.0,0.0
59511,2,59511,0.-74,9.96,0.10,0.1,0.-8,0.-10,6.75,10.21,92536.85,758.70,0.0,0.0,0.0
59559,2,59559,0.-69,10.0,0.17,0.1,0.-11,0.-11,6.87,10.21,92541.23,758.60,0.0,0.0,0.0
59605,2,59605,0.-72,9.70,0.31,0.1,0.-13,0.-11,6.81,10.21,92539.4,758.98,0.0,0.0,0.0
59651,2,59651,0.-74,9.96,0.35,0.1,0.-11,0.-10,6.81,10.21,92540.16,758.60,0.0,0.0,0.0
59697,2,59697,0.-75,9.95,0.33,0.1,0.-12,0.-11,6.81,10.21,92539.4,758.60,0.0,0.0,0.0
59743,2,59743,-1.-1,9.97,0.33,0.1,0.-13,0.-10,6.81,10.22,92534.67,758.11,0.0,0.0,0.0
59789,2,59789,0.-91,10.5,0.37,0.1,0.-11,0.-9,6.81,10.22,92539.4,758.79,0.0,0.0,0.0
59837,2,59837,0.-82,10.2,0.42,0.2,0.-12,0.-8,6.81,10.21,92541.23,758.99,0.0,0.0,0.0
59883,2,59883,0.-74,10.2,0.38,0.3,0.-10,0.-9,6.81,10.22,92536.85,758.40,0.0,0.0,0.0
59929,2,59929,0.-93,9.95,0.38,0.4,0.-12,0.-9,6.81,10.21,92539.4,758.20,0.0,0.0,0.0
59975,2,59975,-1.-19,9.99,0.37,0.4,0.-11,0.-8,6.81,10.21,92540.16,758.20,0.0,0.0,0.0
60021,2,60021,-1.-13,9.99,0.42,0.4,0.-11,0.-6,6.81,10.20,92545.60,758.60,0.0,0.0,0.0
60067,2,60067,0.-93,10.1,0.49,0.5,0.-12,0.-4,6.87,10.22,92543.42,758.40,0.0,0.0,0.0
60113,2,60115,0.-55,9.99,0.45,0.5,0.-8,0.-3,6.81,10.21,92544.53,758.20,0.0,0.0,0.0
60156,2,60156,0.-54,9.97,0.32,0.6,0.-8,0.-5,6.81,10.21,92541.23,758.50,0.0,0.0,0.0
60202,2,60202,0.-59,9.99,0.24,0.6,0.-7,0.-7,6.81,10.21,92536.85,758.89,0.0,0.0,0.0
60249,2,60249,0.-86,10.6,0.14,0.5,0.-9,0.-7,6.87,10.21,92537.92,757.72,0.0,0.0,0.0
60295,2,60295,0.-56,10.6,0.21,0.4,0.-9,0.-7,6.81,10.21,92540.16,759.47,0.0,0.0,0.0
60341,2,60341,0.-66,9.97,0.22,0.4,0.-12,0.-8,6.81,10.20,92530.30,758.70,0.0,0.0,0.0
60387,2,60387,0.-66,9.89,0.25,0.3,0.-10,0.-8,6.87,10.21,92540.16,758.98,0.0,0.0,0.0
60430,2,60430,0.-56,9.92,0.21,0.3,0.-9,0.-8,6.81,10.21,92536.90,758.79,0.0,0.0,0.0
60476,2,60476,0.-53,9.92,0.28,0.3,0.-13,0.-10,6.75,10.21,92539.4,758.30,0.0,0.0,0.0
60522,2,60522,0.-53,10.5,0.39,0.2,0.-11,0.-11,6.81,10.21,92539.4,758.60,0.0,0.0,0.0
61299,2,61299,0.-75,9.95,0.50,0.3,0.-12,0.-8,6.81,10.7,92540.83,758.34,0.0,0.0,0.0
61345,2,61345,0.-77,9.92,0.43,0.4,0.-11,0.-8,6.81,10.10,92536.32,758.16,0.0,0.0,0.0
61391,2,61391,0.-80,9.98,0.43,0.3,0.-11,0.-8,6.87,10.13,92544.17,759.12,0.0,0.0,0.0
61762,2,61762,0.-70,9.97,0.36,0.4,0.-9,0.-9,6.81,10.10,92530.88,758.26,0.0,0.0,0.0
61808,2,61808,0.-68,10.4,0.44,0.4,0.-9,0.-9,6.87,10.13,92539.47,758.66,0.0,0.0,0.0
61854,2,61854,0.-88,9.99,0.39,0.3,0.-9,0.-10,6.81,10.15,92538.26,758.67,0.0,0.0,0.0
61900,2,61900,0.-71,9.96,0.61,0.4,0.-8,0.-11,6.81,10.17,92540.35,758.48,0.0,0.0,0.0
61946,2,61946,0.-83,9.96,0.57,0.5,0.-6,0.-10,6.81,10.18,92540.31,759.16,0.0,0.0,0.0
61992,2,61992,0.-89,9.93,0.45,0.5,0.-4,0.-10,6.81,10.18,92543.56,758.19,0.0,0.0,0.0
62035,2,62035,0.-83,10.2,0.33,0.5,0.-5,0.-10,6.81,10.20,92539.19,758.68,0.0,0.0,0.0
62081,2,62081,0.-80,9.93,0.19,0.4,0.-6,0.-10,6.81,10.19,92540.16,758.29,0.0,0.0,0.0
62127,2,62127,0.-89,9.94,0.25,0.2,0.-10,0.-10,6.81,10.20,92541.28,758.88,0.0,0.0,0.0
62173,2,62173,0.-88,9.93,0.36,0.2,0.-13,0.-10,6.87,10.20,92545.65,758.89,0.0,0.0,0.0
62219,2,62219,0.-92,10.3,0.51,0.2,0.-12,0.-9,6.81,10.21,92546.71,758.89,0.0,0.0,0.0
62265,2,62265,0.-82,10.4,0.58,0.2,0.-11,0.-9,6.87,10.20,92539.9,758.20,0.0,0.0,0.0
62309,2,62309,0.-94,9.99,0.56,0.3,0.-9,0.-10,6.87,10.20,92538.2,758.50,0.0,0.0,0.0
62355,2,62355,0.-91,9.98,0.59,0.4,0.-8,0.-9,6.87,10.20,92544.53,758.39,0.0,0.0,0.0
62401,2,62401,-1.-5,9.89,0.33,0.4,0.-8,0.-9,6.87,10.21,92538.2,758.79,0.0,0.0,0.0
62447,2,62447,0.-84,9.93,0.40,0.3,0.-10,0.-9,6.87,10.21,92542.35,758.20,0.0,0.0,0.0
62493,2,62493,0.-80,9.98,0.40,0.3,0.-9,0.-9,6.87,10.22,92535.79,758.70,0.0,0.0,0.0
62539,2,62539,0.-90,9.91,0.42,0.2,0.-12,0.-9,6.81,10.21,92543.42,758.21,0.0,0.0,0.0
62582,2,62582,0.-87,9.97,0.52,0.2,0.-11,0.-9,6.87,10.21,92539.4,758.89,0.0,0.0,0.0
62628,2,62628,0.-94,9.87,0.46,0.3,0.-10,0.-10,6.81,10.22,92539.4,759.28,0.0,0.0,0.0
62674,2,62674,0.-93,10.2,0.53,0.3,0.-9,0.-9,6.81,10.21,92540.7,758.99,0.0,0.0,0.0
62720,2,62720,0.-98,9.93,0.53,0.3,0.-9,0.-9,6.81,10.22,92532.49,758.60,0.0,0.0,0.0
62766,2,62766,0.-95,9.93,0.64,0.4,0.-8,0.-9,6.81,10.21,92545.60,758.40,0.0,0.0,0.0
62812,2,62812,0.-94,9.95,0.53,0.4,0.-7,0.-9,6.87,10.22,92542.30,758.89,0.0,0.0,0.0
62860,2,62860,0.-87,9.92,0.40,0.4,0.-6,0.-9,6.81,10.22,92540.11,758.11,0.0,0.0,0.0
62906,2,62906,-1.-1,9.92,0.39,0.4,0.-9,0.-9,6.81,10.21,92536.85,758.20,0.0,0.0,0.0
62952,2,62952,0.-86,9.94,0.55,0.4,0.-8,0.-10,6.81,10.21,92540.11,758.20,0.0,0.0,0.0
62998,2,62998,0.-97,9.99,0.46,0.4,0.-8,0.-9,6.87,10.21,92543.36,758.70,0.0,0.0,0.0
63044,2,63044,0.-91,9.88,0.58,0.4,0.-7,0.-9,6.87,10.21,92539.4,758.89,0.0,0.0,0.0
63090,2,63090,0.-92,9.99,0.48,0.5,0.-6,0.-9,6.93,10.21,92536.81,758.30,0.0,0.0,0.0
63136,2,63138,0.-95,9.95,0.49,0.4,0.-7,0.-9,6.87,10.21,92543.42,758.30,0.0,0.0,0.0
63179,2,63179,0.-87,9.92,0.51,0.4,0.-7,0.-8,6.87,10.21,92546.67,758.30,0.0,0.0,0.0
63225,2,63225,0.-97,9.92,0.50,0.4,0.-9,0.-9,6.81,10.21,92535.79,758.69,0.0,0.0,0.0
63271,2,63271,0.-93,9.95,0.52,0.4,0.-8,0.-9,6.81,10.21,92536.85,758.21,0.0,0.0,0.0
63318,2,63318,0.-91,9.96,0.34,0.4,0.-8,0.-8,6.87,10.22,92545.55,758.60,0.0,0.0,0.0
63364,2,63364,0.-99,9.96,0.40,0.3,0.-9,0.-8,6.93,10.21,92537.92,758.79,0.0,0.0,0.0
63410,2,63410,-1.0,9.93,0.48,0.3,0.-10,0.-8,6.81,10.21,92542.35,758.30,0.0,0.0,0.0
63453,2,63453,-1.0,9.91,0.51,0.3,0.-10,0.-8,6.87,10.20,92531.42,758.79,0.0,0.0,0.0
63499,2,63499,-1.-3,9.92,0.53,0.4,0.-10,0.-8,6.81,10.20,92537.92,758.40,0.0,0.0,0.0
63545,2,63545,0.-95,9.93,0.51,0.4,0.-9,0.-8,6.87,10.21,92532.53,758.11,0.0,0.0,0.0
63591,2,63591,-1.-2,9.93,0.48,0.4,0.-9,0.-7,6.87,10.21,92536.85,758.50,0.0,0.0,0.0
63637,2,63637,0.-89,9.95,0.57,0.5,0.-8,0.-7,6.81,10.22,92537.97,758.40,0.0,0.0,0.0
63683,2,63683,0.-99,9.93,0.43,0.5,0.-8,0.-8,6.87,10.20,92539.9,758.50,0.0,0.0,0.0
63726,2,63726,-1.0,9.96,0.39,0.5,0.-9,0.-7,6.87,10.21,92543.42,757.91,0.0,0.0,0.0
63772,2,63772,0.-93,9.98,0.41,0.4,0.-9,0.-7,6.81,10.21,92540.16,758.20,0.0,0.0,0.0
63818,2,63818,0.-90,9.96,0.47,0.4,0.-10,0.-7,6.87,10.21,92541.23,758.40,0.0,0.0,0.0
63864,2,63864,0.-77,9.98,0.50,0.4,0.-11,0.-8,6.81,10.21,92537.92,758.20,0.0,0.0,0.0
63910,2,63910,0.-88,10.0,0.51,0.4,0.-10,0.-8,6.87,10.21,92543.42,758.79,0.0,0.0,0.0
63956,2,63956,0.-85,9.93,0.62,0.4,0.-10,0.-8,6.87,10.21,92541.28,758.79,0.0,0.0,0.0
63999,2,63999,0.-94,9.93,0.49,0.5,0.-10,0.-8,6.93,10.21,92540.16,758.50,0.0,0.0,0.0
64045,2,64045,0.-85,9.97,0.51,0.4,0.-9,0.-7,6.81,10.21,92536.85,758.50,0.0,0.0,0.0
64091,2,64091,0.-85,9.90,0.40,0.5,0.-9,0.-8,6.87,10.22,92543.42,758.1,0.0,0.0,0.0
64137,2,64137,0.-85,9.94,0.38,0.4,0.-9,0.-8,6.87,10.21,92545.55,758.70,0.0,0.0,0.0
64183,2,64183,0.-80,9.96,0.42,0.4,0.-9,0.-8,6.87,10.21,92537.92,758.30,0.0,0.0,0.0
64229,2,64229,0.-90,9.90,0.37,0.4,0.-8,0.-8,6.87,10.21,92539.4,758.40,0.0,0.0,0.0
64272,2,64272,0.-86,9.93,0.60,0.4,0.-10,0.-8,6.81,10.22,92537.88,758.30,0.0,0.0,0.0
64319,2,64319,0.-87,9.92,0.48,0.4,0.-9,0.-8,6.87,10.22,92537.92,758.70,0.0,0.0,0.0
64365,2,64365,0.-92,9.95,0.43,0.4,0.-8,0.-8,6.81,10.22,92540.7,758.70,0.0,0.0,0.0
64411,2,64411,0.-88,9.95,0.47,0.5,0.-9,0.-8,6.81,10.20,92536.81,758.60,0.0,0.0,0.0
64457,2,64457,0.-80,9.92,0.40,0.4,0.-7,0.-8,6.87,10.21,92540.11,758.60,0.0,0.0,0.0
64503,2,64503,0.-86,9.94,0.41,0.4,0.-10,0.-9,6.81,10.22,92541.23,758.70,0.0,0.0,0.0
64551,2,64551,0.-91,9.98,0.52,0.4,0.-10,0.-9,6.87,10.21,92542.30,758.60,0.0,0.0,0.0
64597,2,64597,0.-97,9.95,0.50,0.4,0.-9,0.-9,6.87,10.21,92540.7,758.50,0.0,0.0,0.0
64643,2,64643,0.-93,9.96,0.50,0.4,0.-7,0.-8,6.87,10.22,92541.23,757.92,0.0,0.0,0.0
64689,2,64689,0.-86,9.93,0.49,0.4,0.-7,0.-9,6.93,10.22,92545.55,758.40,0.0,0.0,0.0
64735,2,64735,0.-92,10.2,0.38,0.4,0.-8,0.-9,6.87,10.22,92542.25,758.50,0.0,0.0,0.0
64781,2,64781,0.-87,9.96,0.44,0.4,0.-7,0.-9,6.81,10.22,92540.11,758.40,0.0,0.0,0.0
64827,2,64829,0.-78,9.93,0.49,0.4,0.-8,0.-10,6.87,10.21,92540.11,758.30,0.0,0.0,0.0
64870,2,64870,-1.-3,9.89,0.43,0.4,0.-9,0.-10,6.87,10.21,92535.74,758.60,0.0,0.0,0.0
64916,2,64916,0.-94,9.96,0.48,0.3,0.-10,0.-10,6.87,10.22,92540.11,758.2,0.0,0.0,0.0
64962,2,64962,0.-88,9.97,0.52,0.3,0.-10,0.-9,6.87,10.21,92541.18,758.70,0.0,0.0,0.0
65008,2,65008,-1.0,9.92,0.53,0.4,0.-10,0.-10,6.81,10.22,92541.18,758.70,0.0,0.0,0.0
65054,2,65054,0.-94,9.94,0.45,0.4,0.-9,0.-9,6.81,10.22,92539.4,757.62,0.0,0.0,0.0
65100,2,65100,0.-94,9.95,0.50,0.3,0.-8,0.-9,6.87,10.22,92536.85,758.60,0.0,0.0,0.0
65143,2,65143,0.-88,9.93,0.43,0.3,0.-8,0.-9,6.87,10.22,92541.18,758.50,0.0,0.0,0.0
65189,2,65189,0.-90,9.95,0.53,0.4,0.-10,0.-10,6.81,10.22,92535.74,758.50,0.0,0.0,0.0
65235,2,65235,0.-99,9.94,0.44,0.3,0.-8,0.-10,6.81,10.22,92543.36,759.9,0.0,0.0,0.0
65281,2,65281,-1.-5,9.96,0.38,0.3,0.-8,0.-9,6.87,10.22,92544.43,758.40,0.0,0.0,0.0
65328,2,65328,0.-98,9.95,0.43,0.3,0.-9,0.-9,6.87,10.22,92544.43,758.99,0.0,0.0,0.0
65374,2,65374,0.-96,9.95,0.44,0.3,0.-9,0.-9,6.93,10.21,92542.30,758.89,0.0,0.0,0.0
65417,2,65417,-1.0,9.91,0.50,0.3,0.-10,0.-9,6.87,10.21,92534.67,758.30,0.0,0.0,0.0
65463,2,65463,-1.-1,9.95,0.49,0.3,0.-10,0.-9,6.81,10.22,92535.74,758.70,0.0,0.0,0.0
65509,2,65509,0.-96,9.93,0.46,0.3,0.-9,0.-9,6.87,10.22,92536.85,759.18,0.0,0.0,0.0
65555,2,65555,-1.-5,9.93,0.50,0.3,0.-10,0.-9,6.93,10.22,92529.18,758.80,0.0,0.0,0.0
65601,2,65601,-1.-3,9.91,0.56,0.4,0.-10,0.-8,6.87,10.21,92539.0,758.50,0.0,0.0,0.0
65647,2,65647,-1.-16,9.90,0.52,0.4,0.-9,0.-8,6.93,10.21,92534.67,758.60,0.0,0.0,0.0
65690,2,65690,0.-93,9.96,0.52,0.4,0.-8,0.-7,6.93,10.21,92545.60,758.11,0.0,0.0,0.0
65736,2,65736,0.-90,9.97,0.51,0.4,0.-9,0.-8,6.87,10.22,92535.74,757.91,0.0,0.0,0.0
65782,2,65782,0.-95,9.93,0.51,0.4,0.-11,0.-8,6.87,10.22,92542.30,758.20,0.0,0.0,0.0
65828,2,65828,-1.-3,9.96,0.35,0.4,0.-11,0.-7,6.93,10.22,92543.36,758.11,0.0,0.0,0.0
65874,2,65874,-1.-11,9.93,0.52,0.4,0.-13,0.-7,6.93,10.21,92540.11,758.50,0.0,0.0,0.0
65920,2,65920,-1.-1,9.96,0.53,0.4,0.-14,0.-6,6.87,10.21,92535.79,758.69,0.0,0.0,0.0
65963,2,65963,-1.-9,9.94,0.59,0.4,0.-13,0.-6,6.87,10.21,92540.11,759.18,0.0,0.0,0.0
66009,2,66009,0.-96,9.93,0.63,0.5,0.-11,0.-5,6.87,10.22,92535.74,758.50,0.0,0.0,0.0
66055,2,66055,0.-91,9.95,0.65,0.6,0.-10,0.-5,6.87,10.22,92537.88,758.30,0.0,0.0,0.0
66101,2,66101,0.-86,9.96,0.58,0.6,0.-7,0.-5,6.87,10.22,92540.11,759.8,0.0,0.0,0.0
66147,2,66147,0.-98,9.92,0.39,0.7,0.-6,0.-5,6.87,10.21,92543.36,758.30,0.0,0.0,0.0
66193,2,66193,0.-78,10.1,0.44,0.6,0.-8,0.-6,6.87,10.21,92545.50,758.40,0.0,0.0,0.0
66236,2,66236,0.-93,9.99,0.37,0.6,0.-11,0.-6,6.87,10.22,92540.7,758.60,0.0,0.0,0.0
66282,2,66282,0.-80,9.99,0.44,0.5,0.-9,0.-5,6.87,10.21,92531.37,758.2,0.0,0.0,0.0
66329,2,66329,0.-61,9.97,0.49,0.5,0.-11,0.-7,6.87,10.22,92534.62,758.50,0.0,0.0,0.0
66375,2,66375,0.-58,9.94,0.36,0.5,0.-8,0.-8,6.81,10.21,92541.18,759.9,0.0,0.0,0.0
66421,2,66421,0.-68,9.94,0.27,0.4,0.-10,0.-9,6.81,10.23,92539.0,758.80,0.0,0.0,0.0
66467,2,66467,0.-79,9.99,0.29,0.4,0.-12,0.-11,6.87,10.21,92539.0,758.21,0.0,0.0,0.0
66515,2,66515,0.-81,10.0,0.29,0.2,0.-14,0.-11,6.87,10.22,92544.43,758.40,0.0,0.0,0.0
66561,2,66561,0.-88,9.95,0.43,0.2,0.-16,0.-11,6.87,10.23,92539.0,758.21,0.0,0.0,0.0
66607,2,66607,-1.0,9.97,0.42,0.1,0.-14,0.-10,6.87,10.23,92537.92,758.60,0.0,0.0,0.0
66653,2,66653,0.-89,9.93,0.46,0.2,0.-14,0.-10,6.93,10.22,92539.0,758.50,0.0,0.0,0.0
66699,2,66699,-1.-1,9.95,0.58,0.2,0.-16,0.-10,6.93,10.22,92539.0,758.99,0.0,0.0,0.0
66745,2,66745,0.-96,10.1,0.61,0.2,0.-14,0.-10,6.87,10.23,92537.88,758.2,0.0,0.0,0.0
66793,2,66793,0.-89,9.94,0.66,0.3,0.-13,0.-10,6.81,10.22,92530.25,758.40,0.0,0.0,0.0
66839,2,66839,-1.-12,9.95,0.55,0.3,0.-11,0.-9,6.87,10.22,92540.7,758.40,0.0,0.0,0.0
66885,2,66885,0.-98,9.91,0.56,0.3,0.-10,0.-8,6.87,10.22,92535.69,758.70,0.0,0.0,0.0
66931,2,66931,0.-92,9.91,0.50,0.4,0.-9,0.-9,6.87,10.21,92543.32,758.70,0.0,0.0,0.0
66977,2,66977,0.-86,9.95,0.61,0.4,0.-8,0.-10,6.81,10.22,92542.25,758.70,0.0,0.0,0.0
67023,2,67023,0.-86,9.93,0.56,0.3,0.-9,0.-10,6.81,10.22,92536.81,758.50,0.0,0.0,0.0
67069,2,67071,0.-93,9.96,0.59,0.3,0.-8,0.-10,6.81,10.22,92541.18,758.99,0.0,0.0,0.0
67112,2,67112,-1.-14,9.90,0.55,0.4,0.-9,0.-10,6.87,10.22,92546.62,758.1,0.0,0.0,0.0
67158,2,67158,0.-97,9.96,0.53,0.4,0.-8,0.-10,6.87,10.21,92540.7,758.70,0.0,0.0,0.0
67204,2,67204,-1.-3,9.94,0.55,0.3,0.-10,0.-9,6.87,10.22,92540.7,758.60,0.0,0.0,0.0
67250,2,67250,-1.-12,9.96,0.57,0.4,0.-10,0.-9,6.87,10.23,92541.18,758.50,0.0,0.0,0.0
67296,2,67296,-1.-9,10.1,0.51,0.3,0.-10,0.-8,6.81,10.23,92539.0,758.90,0.0,0.0,0.0
67343,2,67343,0.-94,9.94,0.53,0.2,0.-11,0.-8,6.87,10.22,92536.85,758.1,0.0,0.0,0.0
67385,2,67385,-1.0,9.90,0.46,0.2,0.-14,0.-8,6.93,10.22,92533.56,758.99,0.0,0.0,0.0
67431,2,67431,-1.-4,9.89,0.54,0.2,0.-13,0.-8,6.81,10.22,92540.7,758.99,0.0,0.0,0.0
67477,2,67477,-1.-1,9.93,0.49,0.2,0.-14,0.-7,6.87,10.23,92536.76,758.60,0.0,0.0,0.0
67523,2,67523,0.-82,10.0,0.72,0.2,0.-14,0.-8,6.87,10.23,92543.32,758.50,0.0,0.0,0.0
67569,2,67569,-1.-11,9.93,0.70,0.3,0.-15,0.-8,6.87,10.22,92541.13,759.38,0.0,0.0,0.0
67615,2,67615,-1.-8,9.93,0.75,0.5,0.-12,0.-8,6.93,10.22,92535.74,758.80,0.0,0.0,0.0
67658,2,67658,-1.-11,9.90,0.63,0.5,0.-13,0.-7,6.87,10.22,92536.81,759.28,0.0,0.0,0.0
67704,2,67704,-1.-39,9.98,0.53,0.5,0.-21,0.-5,6.87,10.22,92539.0,758.60,0.0,0.0,0.0
67750,2,67750,0.-99,9.94,0.78,0.5,0.-28,0.-3,6.93,10.23,92536.81,758.70,0.0,0.0,0.0
67796,2,67796,0.-78,9.93,0.73,0.6,0.-26,0.-2,6.87,10.22,92536.76,758.50,0.0,0.0,0.0
67842,2,67842,0.-77,9.95,0.60,0.5,0.-14,0.-3,6.93,10.22,92540.7,758.50,0.0,0.0,0.0
67888,2,67888,0.-74,9.98,0.38,0.5,0.-9,0.-3,6.87,10.22,92541.18,758.70,0.0,0.0,0.0
67931,2,67931,0.-73,9.92,0.37,0.4,0.-16,0.-4,6.87,10.22,92537.92,758.70,0.0,0.0,0.0
67977,2,67977,0.-60,9.94,0.73,0.3,0.-18,0.-5,6.87,10.22,92541.18,758.70,0.0,0.0,0.0
68023,2,68023,0.-74,9.97,0.94,0.5,0.-12,0.-6,6.87,10.23,92543.36,758.50,0.0,0.0,0.0
68069,2,68069,-1.-3,9.87,0.55,0.5,0.-10,0.-5,6.87,10.23,92539.0,758.60,0.0,0.0,0.0
68115,2,68115,0.-98,9.98,0.46,0.4,0.-11,0.-3,6.81,10.22,92532.44,758.80,0.0,0.0,0.0
68161,2,68161,0.-68,9.96,0.78,0.5,0.-11,0.-3,6.87,10.22,92535.74,758.41,0.0,0.0,0.0
68204,2,68204,0.-96,9.95,0.68,0.6,0.-9,0.-3,6.81,10.21,92543.36,758.11,0.0,0.0,0.0
68250,2,68250,0.-90,10.3,0.52,0.6,0.-2,0.-1,6.87,10.22,92544.43,758.60,0.0,0.0,0.0
68296,2,68296,0.-77,9.91,0.34,0.5,0.-5,0.0,6.87,10.22,92542.25,758.99,0.0,0.0,0.0
68343,2,68343,0.-27,10.4,0.44,0.5,0.-10,0.0,6.87,10.22,92544.39,758.31,0.0,0.0,0.0
68389,2,68389,0.-53,10.7,0.37,0.4,0.-9,0.0,6.87,10.22,92541.18,758.89,0.0,0.0,0.0
68435,2,68435,0.-19,10.5,0.62,0.3,0.-2,0.0,6.87,10.23,92544.39,758.31,0.0,0.0,0.0
68478,2,68478,0.27,10.1,0.81,0.4,0.-11,0.-4,6.87,10.23,92540.7,758.60,0.0,0.0,0.0
68524,2,68524,0.-28,9.96,0.58,0.5,0.-5,0.-8,6.87,10.23,92542.25,759.9,0.0,0.0,0.0
68570,2,68570,0.-31,10.3,0.17,0.5,0.0,0.-9,6.87,10.22,92537.88,758.60,0.0,0.0,0.0
68616,2,68616,0.-7,10.1,0.31,0.2,0.-2,0.-11,6.87,10.23,92540.7,759.19,0.0,0.0,0.0
68662,2,68662,0.-70,9.98,0.47,0.0,0.-16,0.-12,6.87,10.23,92543.32,757.92,0.0,0.0,0.0
68708,2,68708,0.-67,9.97,0.33,0.0,0.-2,0.-10,6.87,10.23,92536.76,758.80,0.0,0.0,0.0
68756,2,68756,0.-77,9.98,0.31,0.-2,0.-19,0.-10,6.87,10.23,92546.62,759.19,0.0,0.0,0.0
68802,2,68802,0.-69,9.93,0.35,0.-4,0.-10,0.-7,6.93,10.23,92542.25,759.9,0.0,0.0,0.0
68848,2,68848,0.-56,9.93,0.41,0.-5,0.-7,0.-7,6.87,10.23,92542.20,758.41,0.0,0.0,0.0
68894,2,68894,0.-49,9.96,0.47,0.-7,0.-23,0.-7,6.81,10.22,92544.39,759.0,0.0,0.0,0.0
68940,2,68940,0.-60,9.97,0.78,0.-8,0.-29,0.-7,6.87,10.24,92544.39,758.70,0.0,0.0,0.0
68986,2,68986,0.-50,9.97,0.93,0.-8,0.-22,0.-6,6.87,10.23,92533.50,758.21,0.0,0.0,0.0
69034,2,69034,0.-65,9.95,1.11,0.-7,0.-26,0.-5,6.87,10.23,92539.0,759.19,0.0,0.0,0.0
69080,2,69080,0.-69,9.90,1.13,0.-7,0.-22,0.-4,6.87,10.24,92544.43,758.51,0.0,0.0,0.0
69126,2,69126,0.-73,9.90,1.26,0.-5,0.-24,0.-3,6.93,10.22,92533.50,758.2,0.0,0.0,0.0
69172,2,69172,0.-78,9.88,1.34,0.-3,0.-14,0.0,6.93,10.23,92536.76,758.90,0.0,0.0,0.0
69218,2,69218,0.-23,9.90,1.45,0.-1,0.-15,0.1,6.87,10.24,92541.13,758.21,0.0,0.0,0.0
69264,2,69264,0.-9,9.93,1.60,0.1,0.-15,0.0,6.87,10.23,92536.76,759.19,0.0,0.0,0.0
69312,2,69312,0.18,9.94,1.60,0.4,0.-5,0.-1,6.87,10.23,92540.7,758.80,0.0,0.0,0.0
69359,2,69359,0.30,9.91,1.43,0.7,0.-4,0.-5,6.87,10.23,92538.95,758.70,0.0,0.0,0.0
69405,2,69405,0.28,9.92,1.52,0.9,0.-4,0.-9,6.87,10.23,92539.0,758.31,0.0,0.0,0.0
69451,2,69451,0.-3,9.93,1.45,0.11,0.-3,0.-11,6.93,10.22,92535.64,759.0,0.0,0.0,0.0
69497,2,69497,0.-35,9.95,1.24,0.13,0.-6,0.-12,6.87,10.23,92547.69,757.73,0.0,0.0,0.0
69543,2,69543,0.-64,9.97,0.99,0.14,0.0,0.-11,6.93,10.23,92536.76,759.0,0.0,0.0,0.0
69589,2,69589,0.-29,9.95,0.77,0.14,0.1,0.-10,6.87,10.24,92537.88,758.60,0.0,0.0,0.0
69632,2,69632,0.-14,10.1,0.99,0.13,0.-12,0.-11,6.87,10.23,92544.43,758.50,0.0,0.0,0.0
69678,2,69678,0.-1,9.89,1.17,0.14,0.7,0.-11,6.93,10.23,92539.0,758.41,0.0,0.0,0.0
69724,2,69724,0.17,9.96,1.42,0.18,0.19,0.-13,6.93,10.22,92538.95,758.31,0.0,0.0,0.0
69770,2,69770,0.-88,9.91,1.13,0.21,0.-9,0.-16,6.87,10.22,92535.69,757.82,0.0,0.0,0.0
69816,2,69816,-1.-46,9.98,0.32,0.22,0.8,0.-9,6.93,10.23,92536.76,757.92,0.0,0.0,0.0
69862,2,69862,0.-27,10.4,0.-17,0.20,0.48,0.-3,6.87,10.22,92534.62,758.21,0.0,0.0,0.0
69905,2,69905,0.8,9.95,0.25,0.15,0.3,0.-5,6.87,10.22,92536.81,758.40,0.0,0.0,0.0
69951,2,69951,0.-36,9.94,0.61,0.14,0.-32,0.-8,6.87,10.22,92537.92,758.51,0.0,0.0,0.0
69997,2,69997,0.-69,10.3,0.33,0.15,0.-17,0.-6,7.0,10.22,92544.43,758.2,0.0,0.0,0.0
70043,2,70043,0.-18,10.5,0.2,0.15,0.1,0.-5,6.93,10.23,92540.7,759.19,0.0,0.0,0.0
70089,2,70089,0.14,10.6,0.-59,0.10,0.-9,0.-7,6.87,10.23,92544.39,758.21,0.0,0.0,0.0
70135,2,70135,0.-11,10.3,0.-38,0.4,0.-8,0.-10,6.87,10.22,92543.36,758.70,0.0,0.0,0.0
70178,2,70178,0.-14,10.1,0.-17,0.0,0.-10,0.-12,6.93,10.22,92534.62,758.80,0.0,0.0,0.0
70224,2,70224,0.-43,9.98,0.42,0.0,0.-20,0.-13,6.93,10.23,92535.69,758.99,0.0,0.0,0.0
70270,2,70270,0.-75,9.98,0.73,0.1,0.-25,0.-12,6.87,10.22,92541.18,758.60,0.0,0.0,0.0
70316,2,70316,0.-92,9.98,0.82,0.3,0.-14,0.-9,6.87,10.22,92542.25,758.11,0.0,0.0,0.0
70363,2,70363,0.-67,9.98,0.68,0.6,0.-1,0.-6,6.93,10.23,92533.50,758.90,0.0,0.0,0.0
70409,2,70409,0.-66,10.8,0.58,0.8,0.-9,0.-5,6.93,10.22,92534.62,757.92,0.0,0.0,0.0
70452,2,70452,0.-55,9.94,0.27,0.9,0.-8,0.-3,6.87,10.22,92541.18,758.89,0.0,0.0,0.0
70498,2,70498,0.-61,9.96,0.-7,0.8,0.-10,0.-2,7.0,10.23,92539.0,758.70,0.0,0.0,0.0
70544,2,70544,0.-12,10.5,0.-21,0.6,0.-7,0.-1,6.87,10.23,92544.43,758.70,0.0,0.0,0.0
70602,2,70602,0.-13,10.9,0.-25,0.1,0.-6,0.-3,6.87,10.21,92539.4,757.92,0.0,0.0,0.0
70648,2,70648,0.-18,10.4,0.30,0.0,0.-8,0.-4,6.87,10.22,92536.81,758.80,0.0,0.0,0.0
70694,2,70694,0.-13,10.3,0.62,0.0,0.-14,0.-5,6.93,10.22,92544.39,758.31,0.0,0.0,0.0
70737,2,70737,0.11,9.98,0.52,0.1,0.-11,0.-6,6.87,10.23,92541.13,758.50,0.0,0.0,0.0
70783,2,70783,0.0,9.72,0.33,0.2,0.-10,0.-8,6.87,10.23,92542.25,758.31,0.0,0.0,0.0
70829,2,70829,0.-32,9.93,0.37,0.2,0.-25,0.-9,6.93,10.22,92538.95,758.41,0.0,0.0,0.0
70875,2,70875,0.-30,9.95,0.18,0.2,0.-3,0.-8,6.87,10.22,92541.13,758.60,0.0,0.0,0.0
70921,2,70921,0.-12,10.13,0.23,0.0,0.6,0.-7,6.87,10.24,92536.76,758.60,0.0,0.0,0.0
70967,2,70967,0.-45,9.92,0.15,0.0,0.-13,0.-8,6.87,10.22,92540.7,758.50,0.0,0.0,0.0
71015,2,71015,0.-54,10.3,0.13,0.-1,0.-17,0.-6,6.87,10.22,92544.39,758.50,0.0,0.0,0.0
71061,2,71061,0.-21,10.0,0.37,0.-1,0.-2,0.-5,6.93,10.23,92536.76,758.80,0.0,0.0,0.0
71107,2,71107,0.-43,10.0,0.49,0.-2,0.-13,0.-4,6.87,10.23,92542.20,758.51,0.0,0.0,0.0
71153,2,71153,0.-32,10.4,0.63,0.-1,0.-9,0.-2,6.87,10.23,92536.76,758.50,0.0,0.0,0.0
71199,2,71199,0.-3,9.97,0.70,0.0,0.-5,0.-2,6.93,10.23,92537.88,758.60,0.0,0.0,0.0
71245,2,71245,0.21,10.3,0.74,0.0,0.-9,0.-3,6.93,10.23,92541.13,758.90,0.0,0.0,0.0
71293,2,71293,0.31,9.97,0.65,0.1,0.-7,0.-5,6.93,10.23,92540.7,758.41,0.0,0.0,0.0
71339,2,71339,0.19,10.5,0.71,0.1,0.-8,0.-8,6.93,10.23,92541.13,758.60,0.0,0.0,0.0
71386,2,71386,0.-12,10.6,0.51,0.2,0.-10,0.-9,6.93,10.23,92538.95,759.0,0.0,0.0,0.0
71432,2,71432,0.-8,9.98,0.59,0.1,0.-11,0.-9,6.93,10.22,92540.1,758.21,0.0,0.0,0.0
71478,2,71478,0.-4,10.8,0.66,0.1,0.-13,0.-9,6.87,10.24,92534.57,758.60,0.0,0.0,0.0
71524,2,71524,0.3,9.94,0.53,0.1,0.-6,0.-9,6.87,10.23,92544.34,759.10,0.0,0.0,0.0
71570,2,71570,0.7,10.5,0.62,0.0,0.-7,0.-10,6.93,10.24,92536.76,758.70,0.0,0.0,0.0
71613,2,71613,0.0,9.92,0.72,0.0,0.-10,0.-12,6.87,10.24,92544.39,758.50,0.0,0.0,0.0
71659,2,71659,0.-14,9.99,0.58,0.1,0.0,0.-12,6.93,10.23,92538.95,758.90,0.0,0.0,0.0
71705,2,71705,0.4,10.4,0.76,0.0,0.0,0.-12,6.93,10.23,92529.9,757.92,0.0,0.0,0.0
71751,2,71751,0.-33,9.95,0.80,0.1,0.-10,0.-14,6.93,10.23,92536.76,759.10,0.0,0.0,0.0
71797,2,71797,0.-81,9.98,0.83,0.2,0.-5,0.-11,6.87,10.23,92540.1,758.80,0.0,0.0,0.0
71843,2,71843,0.-72,10.0,0.68,0.3,0.0,0.-7,6.87,10.23,92539.0,758.21,0.0,0.0,0.0
71886,2,71886,0.-33,10.4,0.57,0.2,0.14,0.-4,6.93,10.23,92541.13,758.80,0.0,0.0,0.0
71932,2,71932,0.10,10.1,0.73,0.2,0.5,0.-5,6.93,10.24,92546.57,758.70,0.0,0.0,0.0
71978,2,71978,0.0,10.0,0.89,0.2,0.-14,0.-8,6.87,10.23,92540.7,758.70,0.0,0.0,0.0
72024,2,72024,0.-22,10.1,0.89,0.2,0.-8,0.-8,6.93,10.23,92538.95,758.70,0.0,0.0,0.0
72070,2,72070,0.-10,10.3,0.68,0.3,0.4,0.-8,6.93,10.24,92534.53,758.61,0.0,0.0,0.0
72116,2,72116,0.-4,10.8,0.75,0.2,0.4,0.-9,6.87,10.24,92543.27,758.80,0.0,0.0,0.0
72159,2,72159,0.-13,10.0,0.81,0.2,0.-10,0.-10,6.87,10.24,92538.89,758.61,0.0,0.0,0.0
