millis(),Current_state,Calculated_flight_time,Time_since_last_log,IMU_accel_X,IMU_accel_Y,IMU_accel_Z,IMU_mag_X,IMU_mag_Y,IMU_mag_Z,IMU_gyro_X,IMU_gyro_Y,IMU_gyro_Z,IMU_temp,Raw_IMU_accel_X,Raw_IMU_accel_Y,Raw_IMU_accel_Z,Raw_IMU_mag_X,Raw_IMU_mag_Y,Raw_IMU_mag_Z,Raw_IMU_gyro_X,Raw_IMU_gyro_Y,Raw_IMU_gyro_Z,Raw_IMU_temp,BARO_temp,BARO_press,BARO_alt,Raw_BARO_temp,Raw_BARO_press,Raw_BARO_alt,Velocity_inte,Velocity_diff,Velocity_est,Est_apogee,Battery_voltage,Z_accel_times_burnoutMass
4135,2,4135,44,0.5,0.534,0.427,37.611,-9.570,33.843,0.13,0.36,0.9,-753.400,0.35,0.509,0.449,38.102,-9.836,33.615,0.12,0.39,0.11,-747.0,5.243,91257.750,873.774,5.247,91262.382,873.851,-18.883,0.0,1.975,-72.840,3.789,0.262
4171,2,4171,36,0.11,0.559,0.440,37.623,-9.637,33.805,0.11,0.38,0.8,-753.400,0.0,0.567,0.485,37.752,-9.777,33.601,0.7,0.44,0.4,-747.0,5.249,91257.851,873.721,5.261,91264.234,873.768,-34.515,0.1,2.56,-71.276,3.796,0.270
4211,2,4211,40,0.27,0.542,0.430,37.562,-9.599,33.849,0.10,0.38,0.8,-753.400,0.64,0.524,0.327,37.342,-9.558,34.478,0.16,0.34,0.9,-747.0,5.255,91259.62,873.854,5.275,91255.85,873.779,-51.940,0.3,1.883,-74.682,3.796,0.264
4247,2,4247,36,0.1,0.509,0.439,37.529,-9.611,33.902,0.11,0.37,0.8,-747.0,0.50,0.445,0.442,37.109,-9.383,33.995,0.12,0.35,0.10,-747.0,5.263,91258.476,873.866,5.280,91253.890,873.996,-67.597,0.0,1.988,-72.491,3.796,0.269
4286,2,4286,39,0.28,0.594,0.401,37.483,-9.514,33.992,0.11,0.37,0.8,-747.0,0.165,0.926,0.305,37.109,-9.17,34.273,0.10,0.31,0.75,-747.0,5.270,91258.585,873.799,5.289,91257.335,873.600,-83.999,0.1,2.72,-70.893,3.802,0.246
4323,2,4323,37,0.30,0.592,0.417,37.372,-9.424,34.74,0.12,0.37,0.8,-747.0,0.28,0.502,0.528,37.547,-9.383,34.25,0.15,0.39,0.10,-747.0,5.281,91257.546,873.789,5.298,91257.203,873.804,-99.162,0.0,2.9,-72.146,3.802,0.256
4360,2,4360,37,0.45,0.572,0.432,37.152,-9.394,34.130,0.12,0.36,0.6,-747.0,0.78,0.466,0.556,36.655,-9.631,33.878,0.6,0.41,0.14,-747.0,5.289,91257.679,873.878,5.303,91264.890,874.213,-114.882,0.2,1.918,-73.932,3.796,0.264
4399,2,4399,39,0.21,0.509,0.558,37.240,-9.254,34.22,0.11,0.39,0.6,-747.0,0.57,0.208,0.958,37.781,-8.857,33.937,0.11,0.47,0.5,-747.0,5.295,91258.750,873.905,5.308,91260.382,873.913,-134.196,0.0,1.974,-72.752,3.796,0.342
4436,2,4436,37,0.1,0.429,0.459,37.211,-9.277,33.998,0.12,0.40,0.7,-747.0,0.165,0.43,0.53,36.962,-9.500,33.878,0.19,0.40,0.5,-747.0,5.300,91260.492,873.768,5.303,91262.632,873.311,-153.23,0.3,2.158,-69.281,3.796,0.281
4475,2,4475,39,0.127,0.373,0.488,37.319,-9.289,33.893,0.9,0.38,0.6,-747.0,0.466,0.646,0.449,37.649,-9.76,33.747,0.3,0.21,0.2,-747.0,5.303,91261.546,873.790,5.303,91262.632,873.708,-171.497,0.0,1.978,-72.770,3.796,0.299
4512,2,4512,37,0.156,0.363,0.546,37.430,-9.310,33.876,0.10,0.36,0.6,-747.0,0.172,0.452,0.822,38.102,-9.485,33.937,0.20,0.32,0.10,-747.0,5.304,91262.390,873.732,5.303,91261.437,873.516,-190.644,0.1,2.61,-71.180,3.796,0.335
4551,2,4551,39,0.206,0.376,0.502,37.605,-9.266,33.911,0.12,0.35,0.5,-747.0,0.172,0.531,0.334,37.532,-9.412,34.54,0.12,0.35,0.6,-747.0,5.305,91261.273,873.675,5.308,91259.320,873.925,-211.105,0.1,2.61,-71.242,3.796,0.308
4588,2,4588,37,0.192,0.435,0.396,37.570,-9.383,33.984,0.10,0.32,0.5,-747.0,0.14,0.502,0.427,37.605,-9.441,34.302,0.4,0.34,0.7,-747.0,5.305,91261.937,873.655,5.308,91263.695,873.816,-227.728,0.0,2.19,-72.80,3.796,0.242
4625,2,4625,37,0.163,0.555,0.505,37.728,-9.336,33.998,0.10,0.32,0.6,-747.0,0.21,0.646,0.492,37.752,-9.266,33.952,0.17,0.37,0.9,-747.0,5.305,91261.460,873.819,5.303,91260.242,874.130,-244.405,0.4,1.859,-75.254,3.796,0.309
4668,2,4668,43,0.54,0.495,0.462,37.743,-9.391,34.66,0.13,0.35,0.8,-747.0,0.78,0.344,0.233,37.722,-9.353,34.83,0.12,0.38,0.8,-747.0,5.306,91261.890,873.761,5.308,91264.757,873.420,-265.205,0.1,2.61,-71.153,3.796,0.283
4704,2,4704,36,0.17,0.516,0.387,37.600,-9.406,34.89,0.10,0.37,0.8,-747.0,0.14,0.559,0.449,37.386,-9.558,34.54,0.7,0.39,0.9,-747.0,5.307,91263.0,873.886,5.308,91267.7,874.141,-280.501,0.3,1.888,-74.550,3.796,0.237
4743,2,4743,39,0.35,0.499,0.420,37.673,-9.371,34.98,0.10,0.37,0.8,-747.0,0.93,0.445,0.499,37.898,-9.237,34.98,0.13,0.35,0.6,-747.0,5.308,91263.906,873.865,5.312,91263.828,873.816,-296.259,0.0,2.22,-71.819,3.796,0.257
4779,2,4779,36,0.27,0.485,0.420,37.757,-9.318,34.45,0.12,0.39,0.7,-747.0,0.28,0.430,0.427,38.29,-9.178,34.39,0.11,0.44,0.6,-747.0,5.308,91262.765,873.949,5.308,91257.992,874.237,-311.399,0.2,1.922,-73.781,3.796,0.257
4818,2,4818,39,0.37,0.469,0.426,37.755,-9.374,34.16,0.10,0.38,0.6,-747.0,0.28,0.567,0.521,37.737,-9.543,33.805,0.9,0.32,0.1,-747.0,5.310,91262.125,873.706,5.317,91257.70,872.916,-327.913,0.6,2.320,-66.430,3.796,0.261
4855,2,4855,37,0.14,0.499,0.450,37.641,-9.307,33.987,0.11,0.37,0.5,-747.0,0.35,0.495,0.355,37.152,-9.17,33.937,0.14,0.36,0.6,-747.0,5.310,91261.226,873.766,5.308,91260.242,873.721,-344.138,0.1,1.943,-73.528,3.796,0.276
4892,2,4892,37,0.11,0.492,0.417,37.687,-9.222,33.992,0.10,0.37,0.5,-747.0,0.0,0.524,0.284,37.620,-9.134,34.83,0.4,0.38,0.5,-747.0,5.311,91258.765,873.764,5.312,91254.679,874.130,-360.203,0.0,2.2,-72.327,3.796,0.256
4930,2,4930,38,0.25,0.512,0.440,37.705,-9.289,33.998,0.9,0.38,0.5,-747.0,0.93,0.545,0.614,37.985,-9.573,34.127,0.5,0.41,0.8,-747.0,5.310,91257.382,873.807,5.308,91256.929,874.33,-376.512,0.1,1.958,-73.178,3.802,0.270
4967,2,4967,37,0.22,0.525,0.462,37.690,-9.315,33.940,0.9,0.37,0.5,-747.0,0.14,0.495,0.535,37.956,-9.310,33.747,0.14,0.40,0.7,-747.0,5.312,91257.828,873.704,5.317,91260.242,873.721,-393.215,0.2,2.115,-70.170,3.796,0.283
5006,2,5006,39,0.33,0.501,0.443,37.752,-9.315,33.846,0.9,0.39,0.6,-747.0,0.21,0.445,0.427,38.44,-9.543,33.338,0.8,0.42,0.5,-747.0,5.311,91258.265,873.865,5.312,91259.187,873.721,-410.877,0.4,1.861,-75.171,3.796,0.272
5043,2,5043,37,0.30,0.522,0.467,37.904,-9.427,33.864,0.8,0.39,0.6,-747.0,0.21,0.602,0.477,37.912,-9.573,34.25,0.11,0.36,0.7,-747.0,5.312,91257.601,873.927,5.312,91256.929,874.33,-427.739,0.1,1.941,-73.415,3.802,0.286
5082,2,5082,39,0.30,0.512,0.472,37.909,-9.397,33.908,0.10,0.39,0.7,-747.0,0.0,0.473,0.305,37.649,-8.988,34.302,0.11,0.38,0.10,-747.0,5.313,91259.398,873.848,5.317,91263.695,873.733,-446.73,0.2,2.86,-70.588,3.796,0.289
5119,2,5119,37,0.1,0.491,0.424,37.945,-9.339,33.908,0.10,0.38,0.7,-747.0,0.64,0.437,0.377,38.161,-9.280,34.127,0.7,0.36,0.8,-747.0,5.313,91261.171,873.867,5.308,91265.812,874.130,-462.670,0.0,1.981,-72.650,3.802,0.260
5157,2,5157,38,0.1,0.506,0.411,37.863,-9.505,34.7,0.10,0.37,0.7,-747.0,0.28,0.574,0.470,37.547,-10.143,34.244,0.10,0.35,0.5,-747.0,5.312,91261.625,873.908,5.312,91262.500,873.925,-478.569,0.1,1.960,-73.25,3.802,0.252
5207,2,5207,50,0.2,0.536,0.391,37.562,-9.505,34.162,0.10,0.37,0.8,-747.0,0.28,0.595,0.327,36.539,-9.543,34.112,0.10,0.39,0.9,-747.0,5.313,91262.546,873.867,5.317,91263.828,873.516,-498.664,0.0,2.42,-71.415,3.802,0.240
5243,2,5243,36,0.4,0.513,0.381,37.532,-9.605,34.288,0.10,0.36,0.8,-747.0,0.28,0.488,0.427,37.766,-10.70,34.653,0.12,0.32,0.8,-747.0,5.311,91262.125,873.846,5.303,91254.812,873.925,-512.590,0.0,2.22,-71.842,3.809,0.234
5283,2,5283,40,0.21,0.519,0.403,37.512,-9.657,34.270,0.10,0.36,0.8,-747.0,0.86,0.502,0.413,37.547,-9.251,34.215,0.10,0.38,0.9,-747.0,5.308,91261.250,873.903,5.303,91259.320,874.21,-528.293,0.1,1.945,-73.347,3.809,0.247
5319,2,5319,36,0.38,0.512,0.388,37.360,-9.766,34.250,0.11,0.37,0.7,-747.0,0.21,0.401,0.305,37.401,-9.821,34.25,0.10,0.43,0.3,-747.0,5.308,91259.265,873.862,5.308,91255.875,873.925,-542.554,0.1,2.42,-71.422,3.809,0.238
5358,2,5358,39,0.41,0.532,0.364,37.380,-9.669,34.104,0.11,0.38,0.7,-747.0,0.43,0.674,0.348,37.649,-9.660,33.513,0.11,0.38,0.8,-747.0,5.308,91260.164,873.819,5.312,91267.7,873.708,-557.249,0.1,2.45,-71.411,3.815,0.223
5395,2,5395,37,0.40,0.519,0.378,37.717,-9.669,34.159,0.11,0.37,0.7,-747.0,0.21,0.531,0.399,38.219,-9.543,34.390,0.11,0.37,0.9,-747.0,5.308,91259.921,873.862,5.317,91262.632,873.733,-571.4,0.1,1.958,-73.120,3.815,0.232
5431,2,5431,36,0.34,0.546,0.373,37.784,-9.470,33.992,0.12,0.39,0.7,-747.0,0.0,0.624,0.399,38.102,-9.76,33.820,0.17,0.37,0.9,-747.0,5.308,91261.460,873.862,5.303,91262.500,873.925,-584.542,0.0,2.0,-72.269,3.815,0.228
5471,2,5471,40,0.22,0.518,0.387,37.731,-9.526,33.969,0.11,0.39,0.7,-747.0,0.28,0.358,0.485,37.284,-9.529,34.98,0.8,0.38,0.8,-747.0,5.309,91261.671,873.821,5.308,91260.382,873.816,-599.756,0.1,2.42,-71.461,3.815,0.237
5507,2,5507,36,0.25,0.534,0.404,37.784,-9.505,33.943,0.11,0.37,0.8,-747.0,0.35,0.480,0.391,37.664,-9.719,33.893,0.9,0.34,0.9,-747.0,5.308,91262.125,873.821,5.303,91258.125,873.925,-614.18,0.0,2.0,-72.311,3.815,0.248
5546,2,5546,39,0.24,0.508,0.416,37.784,-9.476,34.7,0.11,0.37,0.9,-747.0,0.35,0.545,0.406,37.649,-9.514,33.835,0.11,0.38,0.8,-747.0,5.308,91260.562,873.946,5.312,91259.187,874.333,-630.28,0.3,1.888,-74.494,3.815,0.255
5583,2,5583,37,0.170,0.344,0.403,37.734,-9.488,33.794,0.11,0.40,0.8,-747.0,0.954,0.287,0.334,37.971,-9.602,33.323,0.8,0.53,0.3,-747.0,5.306,91260.328,873.985,5.303,91261.437,873.925,-645.190,0.1,1.963,-72.903,3.815,0.247
5619,2,5619,36,0.341,0.400,0.387,37.629,-9.567,33.718,0.6,0.46,0.5,-747.0,0.854,0.904,0.320,37.576,-9.470,33.440,0.72,0.67,0.56,-747.0,5.308,91259.664,873.944,5.312,91259.187,873.721,-659.426,0.1,2.42,-71.340,3.809,0.237
5658,2,5658,39,0.305,0.805,0.387,37.693,-9.520,33.709,0.9,0.59,0.11,-747.0,0.208,-2.383,0.485,37.605,-9.295,34.54,0.3,0.105,0.90,-747.0,5.309,91260.85,873.908,5.317,91262.500,873.636,-674.540,0.0,2.37,-71.482,3.809,0.237
5706,2,5706,48,0.844,0.371,0.450,37.600,-9.491,33.764,0.13,0.54,0.71,-747.0,2.656,1.686,0.707,37.196,-9.573,34.171,0.12,0.6,0.312,-747.0,5.312,91259.875,873.867,5.317,91257.70,873.721,-694.659,0.0,2.42,-71.419,3.809,0.276
5748,2,5748,42,0.847,0.519,0.529,37.567,-9.450,33.724,0.35,0.3,0.288,-747.0,0.21,-1.284,0.801,37.489,-9.310,33.630,0.94,0.216,1.93,-747.0,5.311,91259.664,873.745,5.308,91258.125,873.721,-715.247,0.2,2.139,-69.670,3.809,0.324
5784,2,5784,36,0.417,0.727,0.567,37.784,-9.6,33.779,0.24,0.30,0.496,-747.0,-1.191,0.753,0.521,39.52,-7.380,33.601,0.62,0.114,1.42,-747.0,5.312,91258.789,873.846,5.308,91257.70,874.429,-734.987,0.2,1.908,-74.184,3.815,0.347
5823,2,5823,39,0.613,0.304,0.691,38.193,-8.573,33.767,0.9,0.27,0.709,-747.0,-4.299,1.213,0.944,39.622,-7.307,33.382,0.96,0.81,1.8,-747.0,5.311,91258.578,873.846,5.308,91258.125,873.721,-759.536,0.0,2.0,-72.292,3.809,0.424
5860,2,5860,37,0.613,0.54,0.523,38.681,-8.0,33.759,0.57,0.96,1.34,-747.0,0.208,-1.134,0.354,40.46,-6.430,34.10,0.234,0.724,1.713,-747.0,5.310,91259.23,873.805,5.312,91264.757,873.432,-782.29,0.1,2.42,-71.483,3.815,0.321
5899,2,5899,39,-1.66,0.870,0.41,39.26,-7.360,33.718,0.22,0.121,1.291,-747.0,0.387,-2.390,1.704,38.921,-6.372,33.966,0.184,0.129,1.601,-747.0,5.311,91260.328,873.788,5.321,91263.562,873.636,-793.56,0.0,2.17,-72.4,3.815,0.25
5936,2,5936,37,0.620,0.590,0.21,39.552,-6.267,33.884,0.52,0.107,1.827,-747.0,2.210,0.114,0.700,40.119,-3.843,34.463,0.473,0.283,3.769,-747.0,5.315,91260.960,873.812,5.326,91261.304,873.841,-794.221,0.0,1.976,-72.801,3.815,0.13
5973,2,5973,37,0.409,0.498,0.325,40.23,-4.878,33.972,0.66,0.110,2.139,-747.0,0.136,0.294,-2.42,41.406,0.438,34.39,0.7,0.98,2.603,-747.0,5.319,91262.710,873.694,5.326,91265.812,873.841,-800.645,0.3,2.133,-69.839,3.757,0.199
6202,2,6202,229,0.564,0.469,0.357,40.441,-2.130,34.127,0.135,0.77,2.362,-747.0,0.567,1.356,-1.102,41.712,6.430,34.156,0.246,0.85,2.123,-747.0,5.324,91262.898,873.720,5.335,91259.70,873.851,-878.872,0.0,1.974,-72.931,3.776,0.219
6785,2,6785,583,0.759,0.272,0.469,40.727,1.584,34.92,0.190,0.22,2.25,-747.0,0.768,0.150,0.205,41.479,12.145,33.835,0.40,0.224,0.29,-747.0,5.312,91263.625,873.775,5.252,91268.359,873.706,-1119.875,0.0,1.948,-73.420,3.776,0.287
7680,2,7680,895,0.766,0.139,0.894,40.999,5.223,34.83,0.150,0.40,1.706,-747.0,0.423,0.330,0.420,40.280,11.824,33.922,0.14,0.40,0.7,-747.0,5.293,91263.257,873.729,5.224,91261.726,873.407,-1730.140,0.0,2.48,-71.436,3.789,0.548
7722,2,7722,42,0.331,0.99,0.823,41.119,8.424,33.975,0.59,0.24,0.954,-747.0,0.35,0.86,0.348,40.719,12.160,33.922,0.16,0.41,0.7,-747.0,5.273,91263.265,873.751,5.229,91261.328,873.947,-1766.225,0.0,1.979,-72.795,3.789,0.505
7761,2,7761,39,0.419,0.28,0.483,41.75,10.950,33.984,0.49,0.58,0.439,-747.0,0.301,0.933,0.341,41.186,12.189,34.83,0.42,0.72,0.30,-747.0,5.260,91262.296,873.695,5.261,91261.54,873.563,-1791.726,0.1,2.58,-71.250,3.796,0.296
7797,2,7797,36,0.379,0.377,0.331,41.142,11.999,33.954,0.15,0.86,0.16,-747.0,0.366,0.387,0.341,42.49,11.677,34.10,0.76,0.56,0.5,-747.0,5.246,91263.546,873.618,5.266,91265.296,873.467,-1806.401,0.2,2.83,-70.849,3.802,0.203
7834,2,7834,37,0.312,0.357,0.386,41.110,11.914,33.925,0.39,0.50,0.6,-747.0,0.437,0.50,0.477,41.318,11.721,33.688,0.81,0.42,0.18,-747.0,5.252,91261.343,873.739,5.280,91257.335,874.309,-1819.678,0.3,1.892,-74.606,3.809,0.236
7873,2,7873,39,0.307,0.298,0.391,41.242,11.850,33.975,0.49,0.49,0.6,-747.0,0.394,0.35,0.449,40.938,11.502,34.171,0.66,0.33,0.7,-747.0,5.265,91262.460,873.840,5.289,91267.281,873.913,-1834.848,0.2,1.908,-74.178,3.809,0.240
7910,2,7910,37,0.368,0.366,0.417,41.327,11.613,33.905,0.61,0.49,0.8,-747.0,0.344,0.423,0.477,41.142,10.976,33.572,0.43,0.40,0.19,-747.0,5.278,91263.203,873.792,5.294,91265.23,873.708,-1849.824,0.1,2.50,-71.329,3.809,0.256
7949,2,7949,39,0.393,0.190,0.424,41.338,11.458,33.852,0.53,0.40,0.9,-747.0,0.423,0.57,0.377,41.245,11.414,33.820,0.1,0.27,0.33,-747.0,5.285,91262.609,873.763,5.298,91258.125,873.420,-1866.255,0.0,2.29,-71.771,3.809,0.260
7986,2,7986,37,0.417,0.132,0.430,41.175,11.397,33.861,0.31,0.31,0.31,-747.0,0.488,0.93,0.370,41.230,11.370,34.54,0.32,0.11,0.116,-747.0,5.295,91260.734,873.795,5.312,91255.875,873.624,-1882.81,0.0,1.969,-72.953,3.815,0.264
8025,2,8025,39,0.314,0.305,0.394,41.125,11.391,33.914,0.7,0.34,0.73,-747.0,0.78,0.918,0.298,41.69,11.692,33.952,0.40,0.61,0.192,-747.0,5.300,91261.976,873.759,5.308,91263.562,874.130,-1898.175,0.0,2.37,-71.628,3.815,0.242
8062,2,8062,37,0.127,0.480,-1.165,41.93,11.420,33.770,0.41,0.66,0.82,-747.0,0.538,3.897,-4.304,40.777,11.648,33.455,0.178,0.191,0.50,-747.0,5.305,91261.15,873.764,5.312,91262.500,873.937,-1927.43,0.0,1.995,-72.469,3.912,0.714
8101,2,8101,39,0.491,0.413,0.999,40.982,11.552,33.691,0.40,0.104,0.97,-747.0,2.160,0.760,0.354,40.587,11.634,33.177,0.50,0.230,0.96,-747.0,5.311,91261.171,873.791,5.326,91265.812,873.841,-1969.257,0.0,1.974,-72.872,3.970,0.612
8138,2,8138,37,0.472,0.396,-1.124,40.868,11.596,33.653,0.39,0.96,0.68,-747.0,0.330,0.143,-1.2,40.675,11.634,33.630,0.1,0.11,0.114,-747.0,5.315,91261.578,873.875,5.317,91260.109,873.841,-2008.536,0.2,1.922,-73.859,4.2,0.689
8175,2,8175,37,0.321,0.878,0.852,40.660,11.707,33.548,0.91,0.138,0.39,-747.0,-3.481,-6.467,9.514,40.192,11.926,33.528,0.291,0.220,0.27,-747.0,5.318,91262.867,873.940,5.326,91262.367,873.949,-2013.553,0.1,1.938,-73.448,4.21,0.523
8214,2,8214,39,0.472,0.653,0.637,40.561,11.771,33.460,0.90,0.130,0.4,-747.0,3.890,0.208,-1.375,40.572,12.14,33.513,0.35,0.19,0.19,-747.0,5.322,91262.601,873.781,5.331,91262.226,873.337,-1984.489,0.4,2.188,-68.721,4.34,0.391
8264,2,8264,50,0.689,-1.576,1.428,40.523,11.788,33.414,0.46,0.96,0.18,-747.0,0.545,0.717,0.348,40.587,11.736,33.221,0.44,0.24,0.65,-747.0,5.325,91262.125,873.617,5.326,91260.109,873.119,-1932.835,0.3,2.195,-68.755,4.41,0.876
8303,2,8303,39,0.379,-1.480,1.274,40.461,11.829,33.390,0.60,0.58,0.25,-747.0,0.610,0.279,0.413,40.280,11.838,33.60,0.21,0.40,0.61,-747.0,5.325,91260.984,873.577,5.326,91260.109,873.636,-1880.115,0.1,2.42,-71.711,4.47,0.781
8339,2,8339,36,0.393,-1.537,1.394,40.540,11.902,33.338,0.58,0.65,0.9,-747.0,0.401,0.430,0.406,41.69,11.999,33.367,0.9,0.23,0.32,-747.0,5.326,91260.78,873.538,5.321,91255.601,873.650,-1832.70,0.1,2.39,-71.810,4.47,0.855
8378,2,8378,39,1.132,0.252,0.591,40.762,11.961,33.285,0.9,0.25,0.7,-747.0,0.215,0.43,0.413,41.303,12.218,33.265,0.42,0.19,0.18,-747.0,5.326,91260.54,873.497,5.326,91262.226,873.745,-1816.417,0.1,2.42,-71.790,4.47,0.362
8415,2,8415,37,0.424,0.389,0.393,40.815,11.964,33.256,0.17,0.31,0.7,-747.0,0.351,0.473,0.384,40.836,12.28,33.367,0.76,0.47,0.15,-747.0,5.325,91258.953,873.661,5.326,91256.664,874.153,-1834.634,0.4,1.859,-75.418,4.47,0.241
8452,2,8452,37,0.450,0.443,0.391,40.932,12.54,33.428,0.25,0.30,0.3,-747.0,0.674,0.990,0.341,41.172,12.189,34.83,0.2,0.20,0.43,-747.0,5.327,91258.914,873.747,5.335,91259.976,873.553,-1849.159,0.2,1.920,-74.40,4.54,0.240
8492,2,8492,40,0.413,0.426,0.403,41.72,12.92,33.539,0.15,0.26,0.23,-747.0,0.423,0.193,0.470,40.982,12.28,33.615,0.27,0.22,0.39,-747.0,5.329,91258.890,873.731,5.335,91259.976,873.553,-1865.63,0.0,2.16,-72.73,4.54,0.247
8528,2,8528,36,0.350,0.386,0.410,41.23,12.92,33.618,0.7,0.23,0.21,-747.0,0.86,0.229,0.442,40.821,11.999,33.762,0.49,0.4,0.21,-747.0,5.333,91261.109,873.712,5.340,91266.742,873.553,-1879.712,0.0,2.19,-72.36,4.54,0.251
8568,2,8568,40,0.22,0.245,-2.354,41.52,12.60,33.691,0.0,0.28,0.37,-747.0,-1.421,0.660,-10.133,41.449,12.57,33.630,0.2,0.46,0.97,-747.0,5.335,91260.875,873.714,5.340,91261.31,873.758,-1935.11,0.0,1.997,-72.482,4.54,-1.443
8604,2,8604,36,0.22,0.256,-2.365,41.218,12.16,33.621,0.9,0.33,0.45,-747.0,0.122,0.531,0.442,41.669,11.809,33.16,0.29,0.71,0.25,-747.0,5.337,91261.85,873.738,5.335,91257.718,874.275,-2019.978,0.0,1.976,-72.887,4.60,-1.451
8643,2,8643,39,0.43,0.14,-2.429,41.242,11.935,33.387,0.12,0.54,0.76,-747.0,0.574,0.366,0.657,41.289,11.780,32.914,0.15,0.127,0.200,-747.0,5.337,91261.992,873.760,5.335,91264.484,873.662,-2113.481,0.0,1.978,-72.813,4.60,-1.489
8680,2,8680,37,0.37,0.226,-2.822,41.213,11.794,33.227,0.13,0.61,0.72,-747.0,0.825,0.868,-2.437,40.836,11.327,32.812,0.101,0.59,0.18,-747.0,5.337,91262.890,873.902,5.335,91264.484,874.261,-2210.635,0.3,1.875,-74.824,4.54,-1.731
8718,2,8718,38,0.110,0.134,-2.805,41.122,11.756,33.66,0.38,0.69,0.75,-747.0,0.452,-2.38,0.355,40.368,11.809,32.958,0.72,0.44,0.32,-747.0,5.336,91261.984,873.983,5.335,91262.226,873.962,-2317.562,0.2,1.924,-73.712,4.60,-1.720
8768,2,8768,50,0.519,0.413,0.822,40.988,11.707,32.888,0.14,0.58,0.51,-747.0,0.624,0.732,0.219,40.777,11.809,32.738,0.113,0.11,0.18,-747.0,5.336,91260.453,873.923,5.340,91253.343,873.457,-2408.257,0.1,2.64,-70.949,4.60,0.504
8804,2,8804,36,0.466,0.252,0.808,40.836,11.692,32.885,0.8,0.51,0.44,-747.0,0.143,0.272,0.370,40.909,11.736,33.2,0.3,0.38,0.12,-747.0,5.334,91260.453,873.863,5.326,91257.718,873.974,-2437.611,0.1,2.63,-71.11,4.60,0.495
8844,2,8844,40,0.506,0.475,0.766,40.868,11.765,32.847,0.12,0.40,0.2,-747.0,0.775,0.746,0.449,41.449,12.145,32.724,0.7,0.73,0.9,-747.0,5.334,91259.546,873.983,5.331,91259.976,874.261,-2469.106,0.2,1.892,-74.382,4.60,0.470
8880,2,8880,36,0.422,0.799,0.373,40.909,11.923,32.885,0.14,0.32,0.3,-747.0,0.401,0.753,0.470,41.40,12.116,33.2,0.33,0.14,0.7,-747.0,5.334,91257.742,873.863,5.335,91255.468,873.662,-2489.622,0.3,2.136,-69.623,4.60,0.228
8919,2,8919,39,0.370,0.429,0.406,41.99,11.990,32.914,0.30,0.28,0.10,-747.0,0.193,0.186,0.521,41.318,12.145,33.104,0.8,0.28,0.5,-747.0,5.334,91256.843,873.803,5.335,91257.718,873.662,-2504.820,0.1,2.63,-71.75,4.60,0.249
8956,2,8956,37,0.360,0.419,0.446,41.172,12.87,32.949,0.8,0.41,0.9,-747.0,0.574,0.681,0.420,41.142,12.291,32.914,0.3,0.54,0.11,-747.0,5.333,91258.828,873.866,5.335,91263.289,873.769,-2520.594,0.1,1.941,-73.486,4.60,0.273
8993,2,8993,37,0.476,0.567,0.463,41.227,12.166,32.928,0.11,0.39,0.7,-747.0,0.437,0.466,0.456,41.186,12.130,32.899,0.18,0.24,0.1,-747.0,5.336,91259.921,873.825,5.345,91263.156,873.769,-2537.429,0.1,2.42,-71.466,4.60,0.284
9032,2,9032,39,0.404,0.482,0.446,41.218,12.192,32.844,0.14,0.31,0.7,-747.0,0.416,0.323,0.363,41.406,12.277,32.300,0.8,0.34,0.8,-747.0,5.339,91261.242,873.726,5.345,91266.601,873.769,-2555.175,0.2,2.109,-70.273,4.60,0.273
9069,2,9069,37,0.393,0.472,0.437,41.479,12.244,32.762,0.8,0.37,0.7,-747.0,0.344,0.703,0.427,42.341,12.379,32.592,0.4,0.44,0.10,-747.0,5.341,91262.781,873.669,5.345,91263.156,873.373,-2571.533,0.1,2.61,-71.260,4.60,0.268
9108,2,9108,39,0.427,0.539,0.409,41.528,12.180,32.642,0.9,0.37,0.7,-747.0,0.366,0.524,0.377,41.566,11.824,32.505,0.13,0.30,0.4,-747.0,5.345,91262.757,873.690,5.354,91257.585,873.769,-2588.47,0.0,1.978,-72.884,4.60,0.250
9145,2,9145,37,0.387,0.492,0.440,41.587,12.57,32.513,0.11,0.35,0.7,-747.0,0.373,0.445,0.578,41.435,11.677,32.271,0.12,0.40,0.12,-747.0,5.345,91262.515,873.750,5.335,91262.93,874.70,-2603.767,0.1,1.943,-73.555,4.60,0.270
9185,2,9185,40,0.379,0.502,0.437,41.411,11.958,32.449,0.10,0.37,0.9,-747.0,0.394,0.516,0.442,40.309,11.634,32.578,0.10,0.38,0.10,-747.0,5.343,91262.304,873.669,5.335,91262.93,873.361,-2621.336,0.2,2.88,-70.720,4.60,0.268
9221,2,9221,36,0.386,0.526,0.450,41.245,11.929,32.525,0.10,0.38,0.8,-747.0,0.452,0.445,0.427,40.572,12.130,32.680,0.12,0.36,0.5,-747.0,5.343,91262.70,873.649,5.345,91265.406,873.673,-2637.329,0.0,2.19,-72.99,4.60,0.276
9269,2,9269,48,0.389,0.493,0.447,41.28,11.894,32.516,0.12,0.37,0.8,-747.0,0.358,0.538,0.413,41.259,12.204,32.548,0.13,0.39,0.9,-747.0,5.344,91262.93,873.644,5.349,91263.289,873.349,-2658.895,0.0,2.4,-72.402,4.66,0.274
9309,2,9309,40,0.401,0.483,0.434,40.920,11.929,32.572,0.11,0.38,0.9,-747.0,0.430,0.473,0.312,41.26,11.999,32.782,0.9,0.39,0.7,-747.0,5.343,91262.992,873.560,5.349,91262.93,873.349,-2676.550,0.2,2.91,-70.771,4.66,0.266
9345,2,9345,36,0.406,0.515,0.410,40.818,12.11,32.686,0.11,0.37,0.8,-747.0,0.394,0.602,0.456,40.923,12.87,32.841,0.12,0.32,0.8,-747.0,5.344,91261.429,873.623,5.340,91254.273,874.383,-2691.768,0.1,1.941,-73.730,4.66,0.251
9384,2,9384,39,0.390,0.511,0.410,41.37,12.104,32.759,0.11,0.37,0.7,-747.0,0.315,0.495,0.442,41.406,12.101,32.943,0.12,0.37,0.6,-747.0,5.345,91260.523,873.601,5.340,91257.585,873.253,-2707.778,0.0,2.22,-72.103,4.66,0.251
9421,2,9421,37,0.361,0.532,0.414,41.297,12.98,32.782,0.11,0.38,0.8,-747.0,0.308,0.552,0.449,41.873,12.101,32.797,0.10,0.43,0.9,-747.0,5.345,91259.867,873.620,5.345,91262.93,873.769,-2723.47,0.0,1.981,-72.910,4.60,0.254
9460,2,9460,39,0.367,0.531,0.407,41.335,12.66,32.768,0.12,0.37,0.7,-747.0,0.387,0.531,0.377,41.449,12.43,32.475,0.16,0.33,0.7,-747.0,5.344,91259.179,873.765,5.345,91259.835,874.70,-2739.85,0.3,1.873,-75.12,4.60,0.250
9497,2,9497,37,0.346,0.513,0.426,41.227,12.87,32.870,0.13,0.36,0.8,-747.0,0.323,0.387,0.406,40.485,12.101,33.294,0.13,0.35,0.9,-747.0,5.342,91258.62,873.746,5.340,91256.523,873.253,-2754.513,0.0,2.19,-72.11,4.73,0.261
9534,2,9534,37,0.334,0.483,0.419,41.376,12.130,32.893,0.12,0.37,0.8,-747.0,0.337,0.452,0.420,41.669,12.306,32.958,0.9,0.38,0.10,-747.0,5.342,91260.78,873.601,5.340,91264.351,873.662,-2770.153,0.3,2.168,-69.280,4.66,0.257
9573,2,9573,39,0.351,0.503,0.433,41.414,12.157,32.937,0.12,0.37,0.7,-747.0,0.401,0.595,0.513,41.596,12.233,33.162,0.10,0.33,0.2,-747.0,5.341,91260.554,873.661,5.335,91259.976,873.553,-2786.779,0.1,1.943,-73.644,4.66,0.265
9610,2,9610,37,0.370,0.482,0.424,41.245,12.209,32.870,0.12,0.35,0.7,-747.0,0.401,0.445,0.406,41.26,12.364,32.461,0.13,0.37,0.7,-747.0,5.339,91260.320,873.700,5.335,91260.898,873.962,-2802.659,0.1,1.963,-73.199,4.66,0.260
9649,2,9649,39,0.341,0.473,0.440,41.216,12.253,32.908,0.10,0.36,0.7,-747.0,0.244,0.488,0.456,41.303,12.262,32.665,0.7,0.38,0.6,-747.0,5.336,91259.890,873.656,5.331,91257.718,873.853,-2819.537,0.1,2.45,-71.583,4.66,0.270
9686,2,9686,37,0.358,0.509,0.465,41.400,12.215,32.776,0.10,0.37,0.6,-747.0,0.409,0.567,0.528,41.406,11.911,32.636,0.11,0.41,0.7,-747.0,5.334,91261.31,873.777,5.331,91262.226,873.853,-2836.293,0.3,1.892,-74.591,4.66,0.285
9726,2,9726,40,0.350,0.522,0.450,41.391,12.130,32.762,0.11,0.36,0.7,-747.0,0.294,0.516,0.348,41.625,11.882,32.885,0.12,0.30,0.11,-747.0,5.333,91259.734,873.812,5.331,91257.851,873.841,-2854.609,0.0,1.965,-73.36,4.66,0.276
9768,2,9768,42,0.350,0.503,0.426,41.403,11.996,32.736,0.11,0.37,0.8,-747.0,0.401,0.502,0.391,41.654,11.560,33.31,0.10,0.40,0.9,-747.0,5.332,91260.875,873.892,5.331,91265.679,873.949,-2873.26,0.1,1.926,-73.760,4.66,0.261
9807,2,9807,39,0.358,0.505,0.432,41.446,11.870,32.785,0.10,0.38,0.8,-747.0,0.445,0.452,0.434,41.245,11.736,32.709,0.11,0.40,0.8,-747.0,5.329,91260.296,873.824,5.321,91257.992,873.624,-2889.764,0.1,2.72,-70.886,4.73,0.264
9843,2,9843,36,0.373,0.496,0.424,41.335,11.727,32.890,0.11,0.37,0.8,-747.0,0.315,0.445,0.420,40.748,11.546,33.192,0.11,0.35,0.5,-747.0,5.326,91261.460,873.863,5.317,91263.562,874.46,-2905.189,0.1,1.962,-73.34,4.73,0.260
9880,2,9880,37,0.368,0.489,0.409,41.262,11.704,32.928,0.11,0.36,0.8,-747.0,0.387,0.531,0.449,41.40,11.794,32.826,0.12,0.35,0.5,-747.0,5.324,91261.734,873.860,5.321,91263.562,873.841,-2920.617,0.0,2.2,-72.229,4.66,0.250
9920,2,9920,40,0.419,0.492,0.416,41.210,11.663,32.996,0.11,0.37,0.7,-747.0,0.545,0.531,0.384,41.362,11.677,33.221,0.11,0.34,0.10,-747.0,5.321,91262.664,873.839,5.317,91262.500,873.733,-2937.123,0.0,2.22,-71.855,4.66,0.255
9956,2,9956,36,0.437,0.513,0.401,41.78,11.683,32.917,0.11,0.37,0.7,-747.0,0.495,0.610,0.320,40.996,11.663,32.636,0.12,0.41,0.9,-747.0,5.320,91262.234,873.735,5.321,91263.562,873.432,-2951.850,0.2,2.115,-70.137,4.66,0.246
9995,2,9995,39,0.439,0.511,0.410,41.26,11.730,32.949,0.11,0.36,0.8,-747.0,0.452,0.437,0.477,40.982,11.970,32.870,0.7,0.36,0.10,-747.0,5.320,91262.203,873.882,5.321,91257.851,874.358,-2967.692,0.3,1.872,-74.923,4.66,0.251
10032,2,10032,37,0.468,0.508,0.393,41.204,11.905,32.855,0.12,0.37,0.8,-747.0,0.459,0.430,0.334,41.639,12.423,32.724,0.17,0.41,0.6,-747.0,5.321,91261.968,873.882,5.321,91262.367,874.46,-2982.562,0.0,1.999,-72.257,4.66,0.241
10071,2,10071,39,0.450,0.482,0.397,41.332,11.891,32.850,0.12,0.38,0.9,-747.0,0.301,0.401,0.470,41.683,11.721,32.797,0.14,0.36,0.11,-747.0,5.320,91261.968,873.841,5.317,91263.562,873.636,-2997.985,0.1,2.42,-71.442,4.73,0.243
10108,2,10108,37,0.435,0.496,0.397,41.441,11.955,32.759,0.11,0.38,0.8,-747.0,0.466,0.602,0.384,41.902,11.999,32.768,0.7,0.38,0.6,-747.0,5.321,91262.148,873.882,5.326,91263.421,873.937,-3012.696,0.1,1.960,-73.58,4.73,0.243
10145,2,10145,37,0.94,-1.562,0.914,41.625,12.5,32.759,0.12,0.41,0.8,-747.0,-1.205,-5.936,6.241,41.917,11.911,32.636,0.13,0.52,0.8,-747.0,5.321,91261.250,873.904,5.317,91259.46,873.541,-3003.130,0.0,1.978,-72.668,4.66,0.560
10184,2,10184,39,0.47,-1.613,0.940,41.616,11.973,32.762,0.12,0.40,0.8,-747.0,0.215,0.696,0.348,40.938,11.809,32.885,0.8,0.36,0.7,-747.0,5.321,91261.460,873.803,5.321,91258.914,873.853,-2966.956,0.2,2.112,-70.131,4.66,0.576
10221,2,10221,37,0.33,-1.636,0.910,41.508,11.885,32.832,0.10,0.39,0.8,-747.0,0.387,0.545,0.485,41.99,11.984,33.75,0.7,0.32,0.6,-747.0,5.321,91260.562,873.702,5.326,91257.851,873.541,-2932.716,0.2,2.112,-70.232,4.66,0.558
10260,2,10260,39,0.34,-1.640,0.928,41.444,11.914,32.882,0.11,0.39,0.8,-747.0,0.308,0.423,0.377,41.362,11.867,33.45,0.21,0.35,0.11,-747.0,5.322,91258.976,873.865,5.321,91255.601,874.454,-2896.849,0.4,1.859,-75.217,4.66,0.569
10308,2,10308,48,0.20,-1.625,0.921,41.408,11.938,32.940,0.11,0.40,0.8,-747.0,0.394,0.524,0.420,41.727,12.116,33.60,0.8,0.46,0.8,-747.0,5.321,91256.976,873.805,5.321,91253.484,873.636,-2852.430,0.1,2.64,-71.65,4.73,0.565
10348,2,10348,40,0.353,0.562,0.416,41.318,11.891,33.16,0.10,0.36,0.8,-747.0,0.459,0.624,0.449,41.464,11.677,33.16,0.9,0.32,0.6,-747.0,5.321,91256.765,873.822,5.312,91257.992,873.624,-2842.319,0.0,1.983,-72.654,4.66,0.255
10384,2,10384,36,0.384,0.502,0.455,41.376,11.900,33.42,0.13,0.36,0.8,-747.0,0.373,0.394,0.542,41.230,11.853,33.16,0.20,0.32,0.6,-747.0,5.319,91256.335,873.754,5.312,91256.796,873.516,-2858.2,0.1,2.72,-70.953,4.73,0.279
10421,2,10421,37,0.366,0.476,0.423,41.373,11.888,33.86,0.13,0.36,0.7,-747.0,0.294,0.416,0.327,41.84,11.926,33.294,0.7,0.34,0.3,-747.0,5.316,91256.156,873.915,5.312,91256.929,874.346,-2874.254,0.4,1.861,-75.126,4.73,0.259
10460,2,10460,39,0.399,0.499,0.423,41.376,11.897,33.60,0.10,0.36,0.6,-747.0,0.473,0.538,0.377,41.376,11.911,32.914,0.8,0.36,0.8,-747.0,5.316,91257.515,873.771,5.321,91262.367,873.733,-2890.768,0.3,2.168,-69.102,4.66,0.259
10497,2,10497,37,0.377,0.488,0.407,41.338,11.753,33.66,0.12,0.33,0.6,-747.0,0.287,0.466,0.341,41.537,11.400,33.89,0.13,0.32,0.7,-747.0,5.313,91259.562,873.894,5.308,91263.695,874.249,-2906.143,0.3,1.890,-74.511,4.66,0.250
10536,2,10536,39,0.330,0.478,0.417,41.236,11.806,32.996,0.11,0.35,0.6,-747.0,0.222,0.574,0.499,40.952,11.940,32.665,0.6,0.42,0.7,-747.0,5.314,91259.140,873.954,5.317,91255.875,873.925,-2922.237,0.1,1.943,-73.345,4.73,0.256
10573,2,10573,37,0.338,0.525,0.439,41.166,11.821,32.952,0.9,0.37,0.6,-747.0,0.416,0.631,0.650,40.879,11.926,32.797,0.11,0.38,0.6,-747.0,5.315,91260.273,874.16,5.317,91262.500,873.829,-2938.90,0.1,1.941,-73.328,4.73,0.269
10613,2,10613,40,0.364,0.513,0.467,41.186,11.838,32.926,0.12,0.37,0.8,-747.0,0.423,0.358,0.470,41.186,12.14,33.162,0.20,0.35,0.10,-747.0,5.316,91260.39,873.913,5.317,91255.734,873.829,-2956.233,0.2,2.115,-69.964,4.73,0.286
10649,2,10649,36,0.335,0.502,0.465,41.271,11.803,32.923,0.11,0.38,0.8,-747.0,0.330,0.480,0.363,41.800,11.736,32.899,0.5,0.43,0.7,-747.0,5.316,91260.484,873.872,5.321,91264.617,873.528,-2973.27,0.1,2.42,-71.412,4.66,0.285
10686,2,10686,37,0.384,0.516,0.476,41.151,11.867,32.826,0.11,0.38,0.8,-747.0,0.531,0.538,0.399,40.938,11.721,32.607,0.12,0.34,0.9,-747.0,5.317,91259.132,873.769,5.312,91256.929,873.733,-2990.447,0.2,2.115,-70.110,4.66,0.292
10726,2,10726,40,0.374,0.503,0.421,41.218,11.783,32.896,0.12,0.36,0.9,-747.0,0.172,0.509,0.226,41.289,11.517,33.16,0.12,0.29,0.10,-747.0,5.319,91260.210,873.750,5.326,91261.304,873.829,-3008.418,0.0,2.19,-71.998,4.73,0.258
10763,2,10763,37,0.343,0.460,0.366,41.341,11.698,32.858,0.11,0.37,0.9,-747.0,0.258,0.416,0.370,41.493,11.502,32.607,0.3,0.45,0.10,-747.0,5.318,91260.226,873.608,5.312,91262.500,873.119,-3022.997,0.3,2.165,-69.325,4.73,0.224
12383,2,12383,1620,0.323,0.483,0.332,41.373,11.730,32.741,0.9,0.37,0.8,-747.0,0.323,0.473,0.305,41.347,12.174,32.578,0.11,0.33,0.3,-747.0,5.317,91260.390,873.715,5.312,91256.562,874.366,-3589.182,0.0,1.902,-74.429,4.79,0.204
12937,2,12937,554,0.351,0.469,0.357,41.254,11.818,32.715,0.10,0.37,0.8,-747.0,0.473,0.409,0.485,41.201,12.174,32.768,0.11,0.43,0.7,-747.0,5.292,91259.281,873.736,5.196,91259.85,873.634,-3780.417,0.0,1.979,-72.813,4.79,0.219
12982,2,12982,45,0.358,0.470,0.396,41.341,11.806,32.803,0.10,0.37,0.7,-747.0,0.567,0.545,0.592,41.376,11.663,33.45,0.10,0.38,0.7,-747.0,5.263,91260.109,873.683,5.168,91261.70,873.466,-3797.372,0.1,2.56,-71.314,4.79,0.242
13019,2,13019,37,0.391,0.472,0.426,41.365,11.897,32.703,0.9,0.38,0.7,-747.0,0.337,0.516,0.377,41.406,11.970,32.519,0.7,0.33,0.8,-747.0,5.235,91260.882,873.574,5.187,91265.179,873.286,-3812.587,0.2,2.121,-70.152,4.86,0.261
13059,2,13059,40,0.407,0.503,0.450,41.280,12.60,32.695,0.10,0.37,0.6,-747.0,0.337,0.574,0.492,41.69,12.320,32.563,0.13,0.39,0.6,-747.0,5.215,91259.585,873.632,5.210,91256.23,873.407,-3830.128,0.1,1.945,-73.585,4.79,0.276
13095,2,13095,36,0.427,0.515,0.472,41.356,11.952,32.654,0.10,0.37,0.7,-747.0,0.423,0.531,0.413,41.727,11.634,32.373,0.8,0.31,0.8,-747.0,5.198,91261.15,873.562,5.229,91263.718,874.19,-3846.741,0.1,2.74,-71.56,4.86,0.289
13132,2,13132,37,0.401,0.526,0.475,41.268,11.967,32.645,0.10,0.36,0.8,-747.0,0.344,0.466,0.499,40.762,12.247,32.724,0.10,0.40,0.9,-747.0,5.205,91260.773,873.685,5.233,91257.875,874.247,-3864.268,0.3,1.890,-74.683,4.79,0.291
13171,2,13171,39,0.363,0.518,0.442,41.180,12.113,32.560,0.9,0.35,0.8,-747.0,0.373,0.502,0.427,40.938,12.394,32.622,0.9,0.32,0.10,-747.0,5.221,91261.492,873.779,5.247,91264.640,873.935,-3882.153,0.2,1.914,-74.95,4.79,0.271
13208,2,13208,37,0.393,0.511,0.439,41.119,12.186,32.648,0.10,0.37,0.9,-747.0,0.488,0.480,0.363,41.99,12.335,32.958,0.11,0.41,0.10,-747.0,5.233,91259.789,873.870,5.247,91256.679,873.743,-3898.458,0.2,1.916,-73.965,4.79,0.269
13247,2,13247,39,0.400,0.495,0.406,41.210,12.139,32.624,0.9,0.35,0.8,-747.0,0.373,0.495,0.327,41.522,12.87,32.446,0.7,0.32,0.5,-747.0,5.243,91259.703,873.899,5.256,91255.625,873.551,-3914.944,0.0,1.971,-72.786,4.79,0.249
13284,2,13284,37,0.442,0.498,0.413,41.69,12.227,32.671,0.9,0.37,0.8,-747.0,0.631,0.545,0.449,41.26,12.72,32.607,0.9,0.40,0.4,-747.0,5.247,91258.273,873.827,5.252,91256.546,873.659,-3930.106,0.1,2.77,-70.757,4.79,0.253
13323,2,13323,39,0.126,0.557,-1.520,41.72,12.218,32.867,0.9,0.36,0.7,-747.0,-1.234,0.760,-6.34,40.777,12.204,33.703,0.10,0.35,0.7,-747.0,5.254,91258.460,873.808,5.266,91258.804,874.152,-3967.813,0.0,2.19,-71.921,4.79,0.932
13360,2,13360,37,0.130,0.555,-1.517,41.104,12.180,32.841,0.9,0.37,0.7,-747.0,0.394,0.495,0.413,41.99,12.204,32.490,0.7,0.39,0.7,-747.0,5.257,91259.78,873.731,5.266,91267.687,873.551,-4024.11,0.2,2.83,-70.743,4.79,0.930
13397,2,13397,37,0.114,0.542,-1.551,41.119,12.81,32.738,0.8,0.37,0.6,-747.0,0.409,0.416,0.535,41.172,11.838,32.446,0.9,0.37,0.5,-747.0,5.260,91260.164,873.777,5.261,91262.117,873.972,-4080.794,0.1,1.956,-73.235,4.79,0.951
13438,2,13438,41,0.103,0.536,-1.551,41.5,12.160,32.730,0.9,0.37,0.7,-747.0,0.315,0.466,0.327,40.952,12.481,32.402,0.11,0.35,0.12,-747.0,5.262,91261.671,873.880,5.266,91263.179,874.68,-4144.421,0.2,1.906,-74.173,4.79,0.951
13486,2,13486,48,0.54,0.524,-1.544,41.84,12.171,32.680,0.9,0.37,0.8,-747.0,0.387,0.480,0.413,41.420,12.130,32.358,0.8,0.39,0.8,-747.0,5.267,91263.476,873.943,5.275,91265.562,873.972,-4218.740,0.1,1.941,-73.380,4.79,0.947
13525,2,13525,39,0.390,0.508,0.424,41.140,12.265,32.508,0.8,0.38,0.7,-747.0,0.445,0.681,0.434,41.55,12.671,32.841,0.6,0.40,0.4,-747.0,5.268,91264.375,873.926,5.270,91263.312,874.68,-4257.146,0.0,2.17,-71.849,4.79,0.260
13561,2,13561,36,0.383,0.506,0.472,41.268,12.280,32.639,0.9,0.38,0.7,-747.0,0.358,0.488,0.650,41.742,12.277,33.148,0.13,0.38,0.6,-747.0,5.269,91264.375,873.909,5.270,91267.687,873.467,-4273.294,0.0,2.17,-71.866,4.79,0.289
13600,2,13600,39,0.371,0.535,0.457,41.359,12.344,32.689,0.10,0.38,0.6,-747.0,0.351,0.559,0.463,41.625,12.160,32.695,0.12,0.39,0.2,-747.0,5.269,91264.585,873.950,5.266,91263.179,874.176,-4291.432,0.1,1.960,-72.968,4.79,0.280
13637,2,13637,37,0.399,0.548,0.472,41.388,12.347,32.724,0.10,0.39,0.6,-747.0,0.452,0.531,0.399,41.99,12.496,32.578,0.9,0.37,0.8,-747.0,5.270,91264.109,873.933,5.270,91260.789,873.984,-4308.640,0.0,2.17,-71.842,4.86,0.289
13674,2,13674,37,0.404,0.567,0.489,41.318,12.323,32.858,0.10,0.40,0.6,-747.0,0.416,0.574,0.499,41.69,12.14,33.31,0.12,0.45,0.11,-747.0,5.271,91262.968,873.977,5.280,91259.859,874.188,-4326.432,0.1,1.958,-72.989,4.86,0.300
13713,2,13713,39,0.389,0.524,0.473,41.283,12.320,32.899,0.12,0.39,0.6,-747.0,0.366,0.466,0.355,40.879,12.657,33.45,0.12,0.36,0.5,-747.0,5.272,91261.351,873.960,5.275,91255.218,873.984,-4345.213,0.0,2.17,-71.818,4.79,0.290
13750,2,13750,37,0.367,0.522,0.446,41.125,12.268,32.890,0.10,0.39,0.6,-747.0,0.251,0.480,0.513,40.952,12.14,33.104,0.6,0.40,0.6,-747.0,5.273,91259.515,874.85,5.275,91258.531,874.92,-4362.235,0.3,1.888,-74.346,4.86,0.273
13789,2,13789,39,0.381,0.482,0.473,40.950,12.168,32.893,0.10,0.39,0.8,-747.0,0.423,0.358,0.600,40.748,11.663,32.709,0.9,0.37,0.9,-747.0,5.276,91258.820,873.967,5.280,91259.726,873.587,-4380.177,0.3,2.133,-69.553,4.86,0.290
13826,2,13826,37,0.343,0.462,0.477,40.979,12.72,32.893,0.9,0.38,0.8,-747.0,0.258,0.430,0.420,41.245,12.14,32.578,0.9,0.31,0.7,-747.0,5.279,91258.609,873.847,5.284,91259.726,873.383,-4397.783,0.3,2.136,-69.613,4.86,0.293
13865,2,13865,39,0.350,0.457,0.437,41.5,12.72,32.747,0.9,0.37,0.7,-747.0,0.452,0.552,0.298,41.201,12.14,32.300,0.9,0.40,0.6,-747.0,5.280,91257.890,873.828,5.284,91256.281,874.92,-4415.641,0.0,2.19,-71.909,4.79,0.268
13902,2,13902,37,0.364,0.493,0.447,41.40,11.964,32.616,0.8,0.37,0.7,-747.0,0.437,0.646,0.406,41.55,12.116,32.388,0.8,0.36,0.7,-747.0,5.281,91258.531,873.890,5.280,91258.398,874.296,-4432.25,0.1,1.941,-73.443,4.86,0.274
13939,2,13939,37,0.371,0.503,0.443,41.69,11.862,32.519,0.8,0.36,0.6,-747.0,0.287,0.531,0.492,41.99,11.502,32.622,0.8,0.38,0.3,-747.0,5.282,91257.601,873.871,5.284,91253.890,873.996,-4448.515,0.0,2.19,-71.862,4.86,0.272
13983,2,13983,44,0.412,0.525,0.414,41.93,11.935,32.516,0.9,0.37,0.7,-747.0,0.624,0.466,0.456,40.865,12.28,32.695,0.12,0.41,0.12,-747.0,5.283,91257.359,873.931,5.284,91258.531,873.888,-4467.399,0.1,1.943,-73.361,4.86,0.254
14019,2,14019,36,0.407,0.551,0.430,40.999,11.935,32.505,0.9,0.39,0.7,-747.0,0.236,0.559,0.499,40.777,12.14,32.519,0.10,0.41,0.5,-747.0,5.282,91257.335,874.155,5.275,91259.593,874.501,-4482.617,0.6,1.817,-75.840,4.79,0.264
14059,2,14059,40,0.400,0.529,0.483,40.914,11.932,32.487,0.10,0.39,0.8,-747.0,0.416,0.445,0.564,40.777,11.999,32.212,0.11,0.37,0.13,-747.0,5.281,91257.109,874.135,5.280,91255.85,873.996,-4500.904,0.0,2.19,-71.600,4.79,0.296
14095,2,14095,36,0.383,0.492,0.492,40.874,11.981,32.540,0.11,0.39,0.8,-747.0,0.351,0.459,0.449,40.850,12.364,32.651,0.14,0.36,0.8,-747.0,5.282,91256.437,874.35,5.284,91255.85,873.792,-4518.473,0.2,2.112,-69.893,4.86,0.301
14135,2,14135,40,0.381,0.478,0.455,40.727,12.81,32.551,0.11,0.38,0.9,-747.0,0.279,0.459,0.305,40.368,11.999,32.680,0.8,0.34,0.6,-747.0,5.282,91257.820,874.13,5.284,91260.789,873.888,-4537.420,0.0,2.22,-71.672,4.79,0.279
14171,2,14171,36,0.377,0.486,0.449,40.663,12.81,32.525,0.10,0.37,0.9,-747.0,0.602,0.509,0.427,40.543,12.28,32.563,0.8,0.37,0.12,-747.0,5.280,91257.796,874.54,5.275,91258.398,874.92,-4553.698,0.1,1.960,-72.876,4.86,0.275
14208,2,14208,37,0.406,0.478,0.410,40.648,12.72,32.543,0.10,0.36,0.9,-747.0,0.380,0.516,0.305,40.704,11.970,32.607,0.11,0.35,0.8,-747.0,5.283,91258.453,873.974,5.294,91262.906,874.104,-4569.604,0.2,2.86,-70.452,4.86,0.251
14247,2,14247,39,0.391,0.505,0.386,40.567,12.151,32.662,0.9,0.37,0.9,-747.0,0.344,0.581,0.442,40.368,12.394,32.812,0.6,0.44,0.11,-747.0,5.284,91259.117,873.871,5.284,91258.398,873.479,-4585.138,0.2,2.115,-69.996,4.86,0.236
14284,2,14284,37,0.419,0.531,0.376,40.540,12.128,32.630,0.9,0.37,0.10,-747.0,0.488,0.588,0.399,40.719,12.247,32.490,0.12,0.34,0.11,-747.0,5.284,91259.984,873.912,5.284,91259.453,873.996,-4599.238,0.1,1.960,-73.15,4.79,0.230
14323,2,14323,39,0.440,0.496,0.386,40.488,12.113,32.703,0.9,0.37,0.10,-747.0,0.387,0.287,0.355,40.105,11.926,33.45,0.9,0.37,0.6,-747.0,5.282,91259.750,873.852,5.275,91259.593,873.587,-4614.101,0.1,2.63,-71.6,4.79,0.236
14360,2,14360,37,0.430,0.502,0.374,40.327,12.183,32.876,0.8,0.39,0.9,-747.0,0.552,0.538,0.370,39.739,12.379,33.425,0.3,0.46,0.8,-747.0,5.284,91261.101,873.773,5.284,91265.164,873.696,-4628.174,0.2,2.86,-70.653,4.86,0.229
14399,2,14399,39,0.423,0.493,0.414,40.321,12.259,32.917,0.8,0.37,0.9,-747.0,0.344,0.473,0.506,40.675,12.350,32.812,0.10,0.26,0.9,-747.0,5.282,91261.343,873.628,5.284,91264.101,873.383,-4643.568,0.3,2.168,-69.230,4.79,0.254
14437,2,14437,38,0.387,0.493,0.397,40.342,12.189,32.864,0.8,0.36,0.9,-747.0,0.165,0.581,0.355,40.470,12.43,32.548,0.8,0.39,0.11,-747.0,5.282,91262.273,873.732,5.280,91263.39,873.996,-4659.4,0.2,1.906,-74.328,4.86,0.243
14473,2,14473,36,0.367,0.472,0.417,40.277,12.171,32.966,0.8,0.37,0.8,-747.0,0.387,0.480,0.499,40.397,12.160,33.2,0.10,0.40,0.9,-747.0,5.282,91262.54,873.770,5.289,91258.398,874.188,-4673.680,0.1,1.962,-73.109,4.86,0.256
14524,2,14524,51,0.391,0.505,0.450,40.368,12.350,32.955,0.8,0.37,0.9,-747.0,0.509,0.452,0.521,40.558,12.817,32.987,0.11,0.36,0.9,-747.0,5.284,91263.890,873.847,5.284,91268.742,873.972,-4695.824,0.1,1.928,-73.745,4.86,0.276
14560,2,14560,36,0.368,0.496,0.472,40.602,12.309,32.844,0.10,0.37,0.10,-747.0,0.437,0.495,0.477,40.909,12.174,32.870,0.11,0.43,0.11,-747.0,5.282,91262.585,873.864,5.270,91258.664,873.779,-4712.437,0.0,1.983,-72.595,4.86,0.289
14600,2,14600,40,0.381,0.506,0.447,40.695,12.239,32.774,0.11,0.39,0.10,-747.0,0.409,0.524,0.384,41.142,11.999,32.461,0.15,0.37,0.10,-747.0,5.280,91260.601,874.3,5.275,91254.156,874.80,-4730.839,0.3,1.877,-74.668,4.79,0.274
14636,2,14636,36,0.416,0.478,0.465,40.704,12.332,32.738,0.12,0.40,0.9,-747.0,0.337,0.437,0.442,40.514,12.510,32.373,0.14,0.42,0.7,-747.0,5.278,91258.828,873.900,5.270,91254.156,873.479,-4747.272,0.2,2.115,-69.966,4.86,0.285
14675,2,14675,39,0.410,0.491,0.457,40.751,12.414,32.768,0.13,0.39,0.9,-747.0,0.358,0.545,0.463,40.631,12.569,33.148,0.11,0.39,0.6,-747.0,5.274,91259.992,873.777,5.270,91264.234,873.576,-4765.270,0.3,2.139,-69.623,4.86,0.280
14712,2,14712,37,0.389,0.493,0.430,40.833,12.326,32.715,0.12,0.40,0.9,-747.0,0.401,0.466,0.384,40.967,12.379,32.724,0.10,0.37,0.10,-747.0,5.272,91258.851,873.698,5.275,91263.39,873.576,-4781.707,0.2,2.85,-70.730,4.86,0.264
14751,2,14751,39,0.374,0.501,0.426,40.926,12.391,32.639,0.12,0.38,0.8,-747.0,0.366,0.531,0.456,41.376,12.496,32.490,0.12,0.36,0.8,-747.0,5.274,91259.515,873.761,5.280,91261.984,874.92,-4798.417,0.1,1.941,-73.569,4.86,0.261
14788,2,14788,37,0.383,0.491,0.444,40.985,12.508,32.636,0.11,0.38,0.8,-747.0,0.452,0.473,0.477,41.435,12.584,32.446,0.10,0.36,0.7,-747.0,5.274,91260.179,873.619,5.275,91257.468,873.371,-4814.536,0.3,2.165,-69.303,4.86,0.272
14825,2,14825,37,0.406,0.513,0.450,41.61,12.519,32.782,0.11,0.37,0.7,-747.0,0.452,0.552,0.470,40.894,12.569,33.104,0.11,0.37,0.3,-747.0,5.274,91261.289,873.780,5.270,91259.726,874.284,-4831.106,0.4,1.861,-75.242,4.86,0.276
14865,2,14865,40,0.396,0.508,0.436,41.178,12.405,32.671,0.11,0.36,0.7,-747.0,0.308,0.516,0.391,41.216,11.999,32.592,0.10,0.35,0.7,-747.0,5.276,91260.390,873.861,5.280,91259.726,873.984,-4848.847,0.2,1.924,-73.816,4.86,0.267
14901,2,14901,36,0.15,0.740,0.766,41.251,12.405,32.759,0.11,0.35,0.8,-747.0,-1.500,-1.629,-2.35,41.332,12.379,33.162,0.11,0.31,0.14,-747.0,5.276,91259.726,873.984,5.275,91259.726,874.188,-4870.500,0.3,1.890,-74.406,4.86,0.470
14940,2,14940,39,0.2,0.755,0.765,41.201,12.347,32.771,0.10,0.35,0.8,-747.0,0.272,0.602,0.449,41.128,12.204,32.548,0.9,0.34,0.8,-747.0,5.274,91259.726,873.921,5.270,91261.984,873.779,-4900.368,0.1,2.66,-70.877,4.86,0.469
14977,2,14977,37,0.28,0.746,0.759,41.131,12.271,32.847,0.10,0.35,0.8,-747.0,0.323,0.430,0.449,41.84,12.204,32.826,0.8,0.39,0.9,-747.0,5.275,91258.609,873.924,5.280,91251.906,873.383,-4928.572,0.0,1.997,-72.249,4.86,0.465
15028,2,15028,51,0.37,0.737,0.733,41.183,12.230,32.744,0.10,0.35,0.9,-747.0,0.409,0.509,0.341,41.157,12.364,32.592,0.14,0.34,0.9,-747.0,5.275,91258.640,873.880,5.270,91259.859,874.68,-4966.642,0.0,2.45,-71.342,4.86,0.449
15064,2,15064,36,0.17,0.719,0.737,41.166,12.291,32.928,0.10,0.36,0.10,-747.0,0.409,0.423,0.413,41.128,12.306,33.513,0.8,0.40,0.10,-747.0,5.272,91258.218,873.816,5.266,91257.609,873.659,-4993.127,0.1,2.69,-70.935,4.86,0.452
15101,2,15101,37,0.357,0.502,0.439,41.66,12.227,32.855,0.10,0.38,0.9,-747.0,0.373,0.545,0.542,40.836,12.57,32.797,0.12,0.41,0.7,-747.0,5.272,91258.898,873.835,5.275,91263.179,874.284,-5014.903,0.0,1.981,-72.672,4.79,0.269
15141,2,15141,40,0.374,0.469,0.416,41.11,12.209,32.955,0.11,0.37,0.8,-747.0,0.358,0.437,0.334,40.850,12.116,33.45,0.13,0.31,0.6,-747.0,5.272,91259.140,873.854,5.270,91263.179,873.876,-5032.13,0.0,1.981,-72.653,4.86,0.255
15177,2,15177,36,0.366,0.480,0.422,41.28,12.198,33.75,0.12,0.37,0.9,-747.0,0.279,0.488,0.477,41.172,12.145,33.425,0.12,0.39,0.11,-747.0,5.269,91260.921,873.852,5.261,91260.789,873.371,-5047.102,0.0,2.2,-72.223,4.86,0.258
15216,2,15216,39,0.370,0.478,0.440,41.69,12.189,33.154,0.11,0.38,0.8,-747.0,0.430,0.495,0.434,41.362,12.320,32.987,0.11,0.40,0.7,-747.0,5.268,91260.898,873.833,5.266,91259.726,873.972,-5063.923,0.0,2.19,-71.896,4.86,0.270
15253,2,15253,37,0.350,0.509,0.446,41.160,12.323,33.101,0.12,0.37,0.8,-747.0,0.308,0.581,0.442,41.581,12.978,33.250,0.12,0.37,0.10,-747.0,5.270,91261.109,873.938,5.280,91258.664,874.188,-5080.334,0.2,1.904,-74.159,4.92,0.273
15292,2,15292,39,0.334,0.536,0.414,41.201,12.426,33.168,0.12,0.38,0.9,-747.0,0.294,0.681,0.384,41.40,12.569,33.133,0.11,0.42,0.10,-747.0,5.272,91261.531,873.960,5.284,91265.296,874.393,-5097.128,0.0,1.978,-72.592,4.86,0.254
15329,2,15329,37,0.338,0.557,0.413,41.239,12.467,33.232,0.11,0.38,0.10,-747.0,0.380,0.538,0.327,41.40,12.320,33.367,0.11,0.34,0.10,-747.0,5.274,91261.289,873.922,5.280,91261.984,873.684,-5112.450,0.1,2.39,-71.406,4.86,0.253
15368,2,15368,39,0.380,0.549,0.381,41.335,12.399,33.180,0.11,0.38,0.10,-747.0,0.488,0.452,0.320,41.654,11.809,33.162,0.8,0.39,0.11,-747.0,5.276,91260.171,873.941,5.270,91255.218,873.467,-5127.956,0.0,1.981,-72.569,4.86,0.234
15405,2,15405,37,0.404,0.532,0.409,41.388,12.385,33.156,0.11,0.38,0.9,-747.0,0.552,0.409,0.571,41.625,12.247,32.870,0.13,0.39,0.6,-747.0,5.278,91261.78,873.963,5.275,91264.234,874.80,-5142.587,0.0,1.978,-72.591,4.86,0.250
15443,2,15443,38,0.414,0.505,0.433,41.289,12.306,33.80,0.12,0.38,0.10,-747.0,0.358,0.445,0.564,41.84,12.584,32.870,0.16,0.34,0.14,-747.0,5.276,91262.203,874.3,5.270,91264.234,874.393,-5158.596,0.1,1.960,-72.920,4.86,0.265
15481,2,15481,38,0.401,0.449,0.396,41.408,12.209,33.78,0.12,0.36,0.10,-747.0,0.229,0.401,0.198,41.639,12.87,33.118,0.12,0.35,0.9,-747.0,5.274,91262.187,873.840,5.275,91265.296,873.576,-5174.359,0.4,2.195,-68.523,4.86,0.242
15523,2,15523,42,0.396,0.443,0.406,41.385,12.110,33.28,0.11,0.38,0.9,-747.0,0.351,0.509,0.377,40.923,11.824,33.118,0.7,0.41,0.6,-747.0,5.273,91262.195,873.818,5.275,91261.984,873.576,-5191.209,0.0,2.22,-71.859,4.86,0.249
15562,2,15562,39,0.361,0.456,0.384,41.373,12.119,33.69,0.12,0.39,0.8,-747.0,0.315,0.516,0.212,41.596,11.853,33.367,0.9,0.46,0.4,-747.0,5.272,91262.671,873.963,5.266,91257.609,874.188,-5206.631,0.3,1.874,-74.784,4.86,0.235
15598,2,15598,36,0.315,0.496,0.378,41.327,12.54,33.92,0.11,0.39,0.8,-747.0,0.323,0.610,0.542,41.391,11.926,32.987,0.8,0.40,0.8,-747.0,5.270,91262.671,873.941,5.266,91264.234,873.972,-5220.376,0.0,2.22,-71.736,4.86,0.232
15637,2,15637,39,0.318,0.526,0.355,41.400,11.943,33.142,0.9,0.39,0.7,-747.0,0.373,0.595,0.449,41.449,12.28,33.118,0.9,0.35,0.10,-747.0,5.269,91262.226,873.917,5.266,91261.984,874.272,-5234.706,0.0,2.24,-71.708,4.86,0.218
15674,2,15674,37,0.324,0.539,0.420,41.183,12.34,33.83,0.9,0.39,0.8,-747.0,0.258,0.466,0.521,40.558,12.540,32.826,0.11,0.32,0.11,-747.0,5.269,91261.351,874.54,5.270,91260.921,874.260,-5249.72,0.3,1.879,-74.571,4.86,0.257
15711,2,15711,37,0.353,0.515,0.434,41.157,12.113,33.34,0.10,0.39,0.9,-747.0,0.495,0.387,0.449,40.792,12.218,32.870,0.12,0.42,0.11,-747.0,5.265,91260.921,873.866,5.256,91259.859,872.638,-5264.898,0.5,2.230,-67.847,4.86,0.266
15750,2,15750,39,0.374,0.522,0.440,40.982,12.186,32.952,0.10,0.37,0.9,-747.0,0.423,0.552,0.241,40.719,12.218,32.958,0.8,0.35,0.3,-747.0,5.264,91261.187,873.801,5.261,91258.937,873.864,-5281.972,0.1,2.69,-70.945,4.86,0.270
15787,2,15787,37,0.391,0.489,0.406,40.757,12.233,32.902,0.10,0.36,0.9,-747.0,0.409,0.445,0.370,40.266,12.160,32.738,0.10,0.38,0.8,-747.0,5.263,91261.226,873.758,5.261,91264.367,873.756,-5297.639,0.1,2.45,-71.458,4.86,0.249
15826,2,15826,39,0.373,0.489,0.416,40.689,12.323,32.733,0.10,0.37,0.8,-747.0,0.279,0.595,0.499,41.113,12.481,32.271,0.9,0.40,0.6,-747.0,5.260,91260.828,873.633,5.252,91260.0,873.647,-5313.677,0.3,2.142,-69.702,4.86,0.255
15863,2,15863,37,0.387,0.541,0.432,40.777,12.268,32.709,0.11,0.38,0.8,-747.0,0.330,0.725,0.600,40.996,12.262,32.709,0.12,0.35,0.11,-747.0,5.257,91260.187,873.592,5.256,91257.742,874.56,-5329.371,0.1,2.42,-71.678,4.92,0.264
15902,2,15902,39,0.386,0.531,0.433,40.768,12.318,32.727,0.10,0.37,0.8,-747.0,0.488,0.337,0.456,40.748,12.467,32.958,0.12,0.39,0.9,-747.0,5.257,91260.234,873.873,5.256,91260.132,874.44,-5346.249,0.7,1.780,-76.935,4.86,0.265
15939,2,15939,37,0.379,0.508,0.485,40.768,12.326,32.700,0.10,0.38,0.9,-747.0,0.387,0.437,0.499,40.719,12.262,32.826,0.8,0.40,0.10,-747.0,5.255,91260.453,873.707,5.247,91260.0,873.34,-5363.244,0.4,2.199,-68.582,4.86,0.297
15976,2,15976,37,0.403,0.524,0.476,40.809,12.271,32.680,0.11,0.39,0.9,-747.0,0.531,0.524,0.327,40.470,11.882,32.636,0.11,0.43,0.10,-747.0,5.253,91259.601,873.642,5.252,91260.132,873.430,-5381.36,0.1,2.69,-71.94,4.86,0.292
16015,2,16015,39,0.409,0.486,0.480,40.660,12.198,32.765,0.11,0.39,0.9,-747.0,0.308,0.409,0.521,40.368,12.116,32.695,0.10,0.36,0.7,-747.0,5.252,91259.414,873.700,5.247,91259.70,873.935,-5399.706,0.1,1.945,-73.530,4.86,0.294
17120,2,17120,1105,0.406,0.450,0.442,40.739,12.148,32.616,0.10,0.39,0.9,-747.0,0.315,0.545,0.406,41.391,12.14,31.964,0.8,0.37,0.10,-747.0,5.249,91259.843,873.582,5.243,91259.890,873.465,-5909.643,0.0,2.133,-69.918,4.92,0.271
17165,2,17165,45,0.399,0.482,0.427,40.789,12.87,32.592,0.10,0.39,0.9,-747.0,0.452,0.495,0.384,40.996,12.160,32.841,0.13,0.36,0.8,-747.0,5.221,91260.406,873.471,5.117,91262.937,873.490,-5929.214,0.2,2.124,-70.199,4.92,0.262
17201,2,17201,36,0.371,0.508,0.423,40.760,12.66,32.624,0.11,0.38,0.10,-747.0,0.251,0.567,0.477,40.572,12.160,32.987,0.10,0.38,0.15,-747.0,5.199,91259.351,873.547,5.136,91254.710,873.417,-5944.535,0.2,1.928,-74.13,4.92,0.259
17241,2,17241,40,0.350,0.515,0.436,40.982,12.110,32.598,0.11,0.36,0.10,-747.0,0.423,0.559,0.391,41.581,12.101,32.505,0.11,0.34,0.9,-747.0,5.181,91260.703,873.713,5.164,91266.906,874.258,-5961.731,0.4,1.857,-75.352,4.86,0.267
17277,2,17277,36,0.370,0.505,0.429,41.28,12.57,32.604,0.11,0.37,0.10,-747.0,0.409,0.358,0.485,40.602,11.853,32.724,0.12,0.40,0.10,-747.0,5.168,91261.765,873.717,5.182,91264.382,873.958,-5977.311,0.0,1.995,-72.459,4.92,0.263
17317,2,17317,40,0.383,0.470,0.430,40.941,12.104,32.776,0.12,0.37,0.10,-747.0,0.380,0.373,0.413,40.952,12.247,32.826,0.12,0.39,0.8,-747.0,5.157,91261.78,873.900,5.187,91256.429,874.379,-5994.506,0.4,1.845,-75.429,4.92,0.264
17353,2,17353,36,0.397,0.506,0.383,41.20,12.46,32.741,0.11,0.37,0.10,-747.0,0.524,0.674,0.147,41.391,11.867,32.665,0.10,0.37,0.10,-747.0,5.172,91261.765,873.898,5.191,91266.375,873.478,-6009.156,0.0,2.2,-72.141,4.86,0.235
17390,2,17390,37,0.453,0.437,0.341,40.947,12.16,32.624,0.11,0.38,0.9,-747.0,0.531,0.222,0.269,40.207,12.14,32.402,0.9,0.39,0.9,-747.0,5.184,91263.195,874.33,5.196,91261.867,874.90,-6022.565,0.3,1.881,-74.525,4.92,0.209
17430,2,17430,40,0.439,0.496,0.315,40.698,11.978,32.689,0.10,0.40,0.9,-747.0,0.351,0.854,0.262,40.339,11.911,32.826,0.8,0.45,0.6,-747.0,5.192,91261.492,873.961,5.205,91258.414,873.898,-6035.712,0.1,2.77,-70.602,4.86,0.193
17466,2,17466,36,0.430,0.577,0.285,40.730,12.2,32.750,0.10,0.39,0.9,-747.0,0.366,0.760,0.334,40.762,11.970,33.31,0.11,0.36,0.10,-747.0,5.198,91260.62,873.968,5.210,91257.218,873.994,-6046.537,0.0,1.992,-72.274,4.86,0.175
17505,2,17505,39,0.400,0.648,0.281,40.727,11.961,32.791,0.10,0.38,0.9,-747.0,0.229,0.732,0.391,40.938,12.43,33.31,0.13,0.35,0.9,-747.0,5.204,91260.914,873.913,5.215,91260.671,874.103,-6057.592,0.1,2.58,-71.26,4.92,0.172
17542,2,17542,37,0.373,0.638,0.332,40.610,12.14,32.885,0.10,0.39,0.8,-747.0,0.387,0.624,0.406,40.806,12.130,33.133,0.9,0.38,0.6,-747.0,5.210,91258.421,874.18,5.224,91253.906,874.6,-6068.956,0.2,1.904,-74.63,4.92,0.204
17581,2,17581,39,0.346,0.680,0.358,40.716,12.78,33.25,0.10,0.38,0.7,-747.0,0.394,0.430,0.399,40.733,12.335,33.104,0.12,0.35,0.5,-747.0,5.214,91257.703,874.143,5.215,91258.281,874.715,-6082.446,0.3,1.888,-74.269,4.92,0.220
17618,2,17618,37,0.341,0.615,0.399,40.722,12.52,33.42,0.10,0.35,0.8,-747.0,0.330,0.531,0.463,40.368,11.780,32.914,0.7,0.34,0.7,-747.0,5.216,91258.570,874.187,5.215,91262.789,874.115,-6096.467,0.1,1.958,-72.768,4.86,0.244
17655,2,17655,37,0.335,0.535,0.409,40.637,12.16,32.972,0.10,0.36,0.7,-747.0,0.337,0.358,0.384,40.339,11.794,32.680,0.10,0.39,0.7,-747.0,5.217,91259.476,874.208,5.215,91261.726,874.103,-6111.417,0.0,1.978,-72.325,4.92,0.250
17706,2,17706,51,0.376,0.443,0.386,40.523,12.16,32.975,0.10,0.37,0.6,-747.0,0.430,0.272,0.276,40.368,12.43,33.45,0.11,0.38,0.7,-747.0,5.216,91259.921,874.187,5.210,91262.921,873.994,-6131.694,0.0,2.22,-71.476,4.92,0.236
17742,2,17742,36,0.312,0.384,0.324,40.453,12.25,32.888,0.10,0.37,0.7,-747.0,0.71,0.330,0.97,40.456,12.174,32.695,0.10,0.40,0.8,-747.0,5.211,91261.39,874.168,5.201,91259.476,873.911,-6144.483,0.0,2.19,-71.542,4.86,0.198
17782,2,17782,40,0.300,0.410,0.331,40.403,12.52,32.896,0.11,0.38,0.7,-747.0,0.330,0.559,0.434,40.485,12.467,33.148,0.15,0.38,0.8,-747.0,5.209,91259.921,873.985,5.205,91252.710,873.802,-6157.602,0.4,2.223,-67.846,4.92,0.203
17818,2,17818,36,0.310,0.386,0.311,40.502,12.183,32.829,0.12,0.38,0.7,-747.0,0.380,0.409,0.363,40.865,12.437,32.578,0.12,0.35,0.7,-747.0,5.211,91258.382,873.884,5.224,91255.101,873.610,-6169.176,0.2,2.112,-70.14,4.92,0.191
17857,2,17857,39,0.330,0.410,0.341,40.648,12.253,32.812,0.11,0.38,0.8,-747.0,0.437,0.480,0.535,41.69,12.145,32.592,0.8,0.38,0.11,-747.0,5.213,91257.39,873.783,5.224,91254.968,873.599,-6181.910,0.2,2.111,-70.127,4.92,0.209
17894,2,17894,37,0.295,0.466,0.358,40.660,12.385,32.814,0.11,0.37,0.8,-747.0,0.258,0.552,0.363,40.426,12.700,33.60,0.10,0.35,0.8,-747.0,5.214,91257.218,873.745,5.215,91263.851,873.802,-6194.868,0.1,2.40,-71.562,4.92,0.220
17931,2,17931,37,0.354,0.501,0.397,40.640,12.470,32.876,0.11,0.36,0.9,-747.0,0.366,0.502,0.291,40.353,12.598,33.2,0.11,0.32,0.10,-747.0,5.218,91257.890,873.745,5.224,91262.789,873.911,-6208.862,0.0,2.0,-72.363,4.92,0.243
17970,2,17970,39,0.366,0.493,0.381,40.651,12.490,32.794,0.10,0.35,0.9,-747.0,0.387,0.524,0.355,40.543,12.569,32.738,0.7,0.36,0.7,-747.0,5.222,91258.328,873.805,5.224,91254.968,874.103,-6224.60,0.1,1.943,-73.463,4.92,0.234
18007,2,18007,37,0.357,0.512,0.391,40.572,12.534,32.920,0.10,0.35,0.9,-747.0,0.337,0.502,0.413,40.470,12.657,33.206,0.14,0.34,0.8,-747.0,5.220,91259.421,873.906,5.215,91260.539,874.115,-6238.373,0.2,1.908,-74.96,4.92,0.240
18047,2,18047,40,0.341,0.515,0.355,40.491,12.662,33.31,0.10,0.35,0.8,-747.0,0.358,0.495,0.355,40.660,12.788,33.148,0.10,0.39,0.8,-747.0,5.217,91260.773,873.968,5.210,91261.726,873.911,-6253.329,0.1,1.941,-73.337,4.92,0.218
18083,2,18083,36,0.348,0.568,0.324,40.435,12.575,32.958,0.10,0.36,0.8,-747.0,0.294,0.818,0.205,40.149,12.262,32.695,0.9,0.41,0.9,-747.0,5.217,91259.445,874.69,5.215,91257.218,874.307,-6265.575,0.2,1.908,-73.930,4.92,0.198
18122,2,18122,39,0.354,0.592,0.377,40.388,12.510,33.89,0.11,0.38,0.8,-747.0,0.394,0.624,0.556,40.119,12.277,33.659,0.16,0.37,0.7,-747.0,5.217,91257.453,874.48,5.219,91252.851,873.802,-6279.261,0.0,2.22,-71.616,4.86,0.231
18160,2,18160,38,0.381,0.683,0.387,40.301,12.429,33.104,0.12,0.38,0.7,-747.0,0.524,0.976,0.406,40.105,12.160,32.812,0.12,0.39,0.4,-747.0,5.215,91258.359,874.110,5.215,91259.476,874.415,-6293.797,0.1,1.941,-73.200,4.86,0.237
18207,2,18207,47,0.404,0.658,0.393,40.254,12.338,33.19,0.11,0.38,0.9,-747.0,0.452,0.380,0.442,40.236,12.204,32.782,0.10,0.33,0.16,-747.0,5.216,91258.625,874.146,5.219,91261.867,874.295,-6312.146,0.0,1.965,-72.666,4.92,0.241
18247,2,18247,40,0.430,0.653,0.403,40.327,12.163,33.2,0.12,0.38,0.12,-747.0,0.488,0.466,0.406,41.26,11.911,33.60,0.13,0.37,0.21,-747.0,5.216,91257.960,874.81,5.210,91258.414,873.586,-6328.79,0.1,2.69,-70.649,4.92,0.247
18283,2,18283,36,0.439,0.611,0.420,40.347,12.133,33.51,0.12,0.37,0.12,-747.0,0.337,0.610,0.291,40.251,12.116,32.943,0.8,0.38,0.14,-747.0,5.214,91257.85,873.980,5.205,91252.851,873.802,-6342.909,0.2,2.112,-69.925,4.92,0.257
18322,2,18322,39,0.450,0.582,0.401,40.596,12.128,32.966,0.11,0.38,0.13,-747.0,0.452,0.480,0.463,41.362,12.247,33.235,0.13,0.40,0.9,-747.0,5.213,91258.867,873.958,5.215,91261.726,873.694,-6358.947,0.0,2.22,-71.702,4.86,0.246
18359,2,18359,37,0.400,0.491,0.409,40.587,12.139,32.908,0.10,0.38,0.15,-747.0,0.272,0.516,0.442,40.61,12.218,32.519,0.7,0.42,0.14,-747.0,5.213,91259.765,873.733,5.215,91263.984,873.286,-6373.950,0.6,2.291,-66.883,4.92,0.250
18398,2,18398,39,0.381,0.521,0.403,40.532,12.139,32.885,0.10,0.40,0.13,-747.0,0.358,0.531,0.413,39.959,12.204,32.665,0.10,0.42,0.9,-747.0,5.212,91258.835,873.613,5.215,91257.218,873.694,-6389.792,0.3,2.136,-69.828,4.92,0.247
18435,2,18435,37,0.353,0.545,0.383,40.608,12.280,32.747,0.10,0.40,0.9,-747.0,0.344,0.588,0.305,41.406,12.613,32.373,0.12,0.40,0.2,-747.0,5.213,91258.601,873.675,5.215,91257.218,873.898,-6404.344,0.1,1.941,-73.633,4.92,0.235
18474,2,18474,39,0.371,0.535,0.423,40.704,12.356,32.680,0.10,0.40,0.8,-747.0,0.430,0.559,0.492,40.733,12.496,32.607,0.8,0.36,0.8,-747.0,5.216,91259.15,873.713,5.219,91254.968,873.994,-6420.74,0.0,1.963,-73.145,4.92,0.259
18511,2,18511,37,0.350,0.554,0.404,40.543,12.361,32.554,0.10,0.40,0.8,-747.0,0.344,0.574,0.370,40.558,12.277,32.607,0.12,0.43,0.8,-747.0,5.215,91258.812,873.773,5.210,91260.671,873.994,-6435.396,0.1,1.943,-73.489,4.92,0.248
18548,2,18548,37,0.351,0.559,0.411,40.654,12.405,32.490,0.10,0.39,0.6,-747.0,0.279,0.545,0.477,40.616,12.437,32.198,0.7,0.36,0.4,-747.0,5.215,91257.914,873.917,5.215,91259.476,874.6,-6450.505,0.3,1.874,-74.812,4.92,0.252
18587,2,18587,39,0.363,0.554,0.410,40.762,12.467,32.525,0.10,0.37,0.6,-747.0,0.416,0.502,0.406,40.499,12.510,32.841,0.12,0.32,0.9,-747.0,5.214,91257.703,873.980,5.210,91256.164,874.6,-6466.543,0.1,1.941,-73.331,4.92,0.251
18624,2,18624,37,0.343,0.522,0.406,40.534,12.464,32.584,0.11,0.37,0.7,-747.0,0.244,0.430,0.284,40.266,12.598,32.665,0.14,0.37,0.8,-747.0,5.214,91259.54,874.21,5.215,91263.984,874.103,-6481.653,0.1,1.960,-72.883,4.92,0.249
18663,2,18663,39,0.324,0.529,0.404,40.602,12.396,32.657,0.11,0.37,0.8,-747.0,0.337,0.595,0.485,41.69,12.160,32.972,0.9,0.37,0.8,-747.0,5.212,91259.734,874.2,5.210,91258.414,873.898,-6497.467,0.0,2.19,-71.709,4.92,0.248
18705,2,18705,42,0.335,0.509,0.407,40.754,12.385,32.677,0.11,0.36,0.8,-747.0,0.401,0.473,0.384,41.318,12.218,32.709,0.12,0.39,0.10,-747.0,5.213,91259.78,873.961,5.215,91257.359,873.790,-6514.527,0.0,2.42,-71.294,4.92,0.250
18744,2,18744,39,0.356,0.493,0.409,40.967,12.382,32.762,0.12,0.38,0.9,-747.0,0.380,0.466,0.485,41.683,12.423,32.622,0.12,0.43,0.11,-747.0,5.212,91259.984,873.896,5.210,91263.984,873.682,-6530.454,0.1,2.69,-70.832,4.92,0.250
18780,2,18780,36,0.367,0.492,0.424,40.894,12.399,32.838,0.12,0.39,0.8,-747.0,0.473,0.495,0.485,40.134,12.598,33.221,0.11,0.41,0.4,-747.0,5.212,91259.765,873.915,5.210,91255.101,874.103,-6545.465,0.0,1.981,-72.572,4.92,0.260
18817,2,18817,37,0.406,0.503,0.443,41.40,12.341,32.852,0.11,0.39,0.8,-747.0,0.437,0.488,0.377,40.996,12.306,32.738,0.13,0.37,0.9,-747.0,5.212,91257.992,873.853,5.215,91255.101,873.790,-6561.530,0.1,2.66,-70.930,4.92,0.272
18856,2,18856,39,0.414,0.496,0.404,40.912,12.396,32.908,0.11,0.39,0.8,-747.0,0.380,0.559,0.291,40.426,12.437,33.250,0.8,0.36,0.8,-747.0,5.213,91258.210,873.812,5.215,91259.476,873.694,-6578.72,0.1,2.42,-71.445,4.92,0.248
18893,2,18893,37,0.401,0.526,0.410,40.824,12.490,32.914,0.11,0.38,0.7,-747.0,0.337,0.624,0.413,40.879,12.686,32.738,0.14,0.32,0.5,-747.0,5.211,91258.625,873.812,5.205,91259.476,873.790,-6593.155,0.0,2.0,-72.293,4.92,0.251
18932,2,18932,39,0.389,0.554,0.377,40.640,12.490,32.926,0.11,0.37,0.7,-747.0,0.315,0.602,0.320,40.762,12.423,32.680,0.11,0.38,0.7,-747.0,5.212,91257.750,873.956,5.215,91259.609,874.403,-6608.521,0.3,1.873,-74.777,4.92,0.231
18969,2,18969,37,0.340,0.569,0.377,40.751,12.452,32.844,0.11,0.37,0.7,-747.0,0.229,0.574,0.485,40.689,12.408,32.812,0.9,0.45,0.7,-747.0,5.212,91258.859,873.875,5.210,91260.671,873.694,-6622.489,0.2,2.88,-70.475,4.92,0.231
19008,2,19008,39,0.344,0.572,0.410,40.780,12.537,32.835,0.11,0.38,0.7,-747.0,0.459,0.502,0.542,41.142,12.730,32.695,0.14,0.38,0.7,-747.0,5.213,91259.734,873.877,5.219,91259.476,873.802,-6637.855,0.0,1.997,-72.276,4.92,0.251
19045,2,19045,37,0.340,0.559,0.437,41.31,12.560,32.782,0.12,0.37,0.7,-747.0,0.358,0.495,0.427,41.683,12.554,32.987,0.12,0.33,0.10,-747.0,5.212,91259.507,873.879,5.210,91258.281,873.706,-6653.549,0.0,1.997,-72.271,4.92,0.268
19082,2,19082,37,0.356,0.536,0.463,41.84,12.513,32.712,0.12,0.38,0.8,-747.0,0.416,0.509,0.542,41.142,12.452,32.388,0.12,0.37,0.7,-747.0,5.215,91258.835,874.4,5.219,91256.164,874.415,-6670.225,0.3,1.888,-74.407,4.92,0.284
19121,2,19121,39,0.377,0.505,0.476,41.119,12.470,32.703,0.11,0.38,0.8,-747.0,0.423,0.445,0.384,40.938,12.204,32.636,0.8,0.36,0.7,-747.0,5.215,91258.578,873.867,5.215,91258.281,873.718,-6688.559,0.3,2.158,-69.160,4.92,0.292
19158,2,19158,37,0.391,0.503,0.467,41.125,12.394,32.619,0.12,0.36,0.8,-747.0,0.301,0.567,0.442,40.719,12.28,32.388,0.12,0.35,0.7,-747.0,5.217,91258.304,874.12,5.224,91259.343,874.415,-6706.32,0.3,1.873,-74.722,4.92,0.286
19198,2,19198,40,0.353,0.513,0.459,41.5,12.268,32.601,0.12,0.35,0.8,-747.0,0.265,0.552,0.499,40.543,12.101,32.607,0.13,0.36,0.8,-747.0,5.217,91257.828,873.992,5.215,91257.85,873.706,-6724.577,0.0,2.19,-71.721,4.92,0.281
19246,2,19246,48,0.346,0.519,0.452,40.768,12.192,32.575,0.12,0.37,0.8,-747.0,0.323,0.524,0.391,40.499,12.174,32.855,0.14,0.40,0.11,-747.0,5.219,91258.757,874.12,5.224,91262.921,873.802,-6746.453,0.0,1.981,-72.477,4.99,0.277
19286,2,19286,40,0.325,0.508,0.427,40.575,12.139,32.551,0.11,0.37,0.9,-747.0,0.315,0.452,0.420,40.178,12.189,32.271,0.8,0.37,0.10,-747.0,5.218,91259.640,873.949,5.215,91260.539,874.103,-6764.50,0.1,2.66,-70.836,4.92,0.262
19322,2,19322,36,0.333,0.518,0.410,40.488,12.92,32.478,0.12,0.37,0.9,-747.0,0.459,0.495,0.298,40.499,11.970,32.271,0.11,0.37,0.11,-747.0,5.218,91259.187,873.925,5.215,91256.23,873.599,-6779.139,0.0,2.24,-71.689,4.92,0.251
19359,2,19359,37,0.323,0.522,0.380,40.342,12.268,32.581,0.12,0.37,0.9,-747.0,0.251,0.588,0.291,39.988,12.905,32.899,0.14,0.34,0.7,-747.0,5.217,91258.968,873.721,5.219,91258.281,873.394,-6793.770,0.5,2.256,-67.514,4.92,0.233
19398,2,19398,39,0.340,0.476,0.391,40.391,12.408,32.700,0.11,0.38,0.9,-747.0,0.351,0.323,0.556,40.792,12.803,33.206,0.8,0.40,0.7,-747.0,5.219,91258.546,873.680,5.224,91254.968,873.502,-6808.829,0.1,2.42,-71.578,4.92,0.240
19435,2,19435,37,0.328,0.505,0.399,40.461,12.484,32.738,0.10,0.37,0.8,-747.0,0.265,0.667,0.427,40.850,12.554,33.45,0.11,0.39,0.7,-747.0,5.218,91258.492,873.844,5.219,91262.656,874.620,-6823.460,0.4,1.859,-75.204,4.92,0.244
19475,2,19475,40,0.351,0.502,0.416,40.575,12.519,32.943,0.12,0.37,0.8,-747.0,0.430,0.437,0.506,40.748,12.364,33.294,0.15,0.34,0.6,-747.0,5.220,91257.593,873.786,5.224,91256.23,873.815,-6839.766,0.1,2.61,-71.109,4.92,0.255
19511,2,19511,36,0.334,0.498,0.424,40.508,12.648,33.104,0.11,0.37,0.7,-747.0,0.373,0.473,0.341,40.163,12.613,33.75,0.5,0.37,0.7,-747.0,5.221,91258.15,873.889,5.219,91258.148,874.115,-6854.906,0.2,1.906,-74.153,4.92,0.260
19550,2,19550,39,0.371,0.456,0.433,40.581,12.472,33.75,0.10,0.38,0.7,-747.0,0.437,0.380,0.334,40.353,12.28,32.753,0.10,0.39,0.10,-747.0,5.222,91258.234,874.36,5.224,91259.343,874.127,-6871.644,0.3,1.872,-74.739,4.99,0.265
19587,2,19587,37,0.364,0.491,0.414,40.461,12.332,33.66,0.10,0.37,0.8,-747.0,0.315,0.495,0.463,40.192,12.101,33.162,0.10,0.36,0.11,-747.0,5.223,91259.765,874.120,5.229,91262.656,873.923,-6887.337,0.2,1.922,-73.584,4.92,0.254
19626,2,19626,39,0.391,0.453,0.421,40.283,12.198,33.40,0.9,0.36,0.9,-747.0,0.401,0.480,0.463,39.959,11.882,32.914,0.6,0.36,0.10,-747.0,5.224,91259.320,873.937,5.224,91260.398,873.706,-6903.655,0.4,2.223,-67.895,4.92,0.258
19663,2,19663,37,0.317,0.492,0.426,40.175,12.95,33.57,0.8,0.37,0.9,-747.0,0.57,0.631,0.528,40.207,11.853,33.382,0.8,0.39,0.6,-747.0,5.225,91258.859,874.19,5.229,91253.773,874.224,-6919.349,0.2,1.924,-73.645,4.92,0.261
19700,2,19700,37,0.320,0.522,0.456,40.274,11.984,32.964,0.10,0.37,0.9,-747.0,0.387,0.624,0.492,40.660,12.57,32.607,0.14,0.35,0.7,-747.0,5.226,91257.515,873.921,5.224,91251.382,873.622,-6935.680,0.2,2.109,-70.41,4.92,0.279
19753,2,19753,53,0.297,0.548,0.486,40.485,12.31,33.42,0.10,0.37,0.9,-747.0,0.323,0.509,0.485,41.406,12.262,33.148,0.11,0.42,0.9,-747.0,5.227,91257.960,873.856,5.229,91261.593,873.802,-6960.671,0.1,2.69,-70.876,4.99,0.298
19789,2,19789,36,0.308,0.549,0.462,40.599,11.926,32.879,0.10,0.38,0.8,-747.0,0.373,0.502,0.341,40.762,11.575,32.344,0.12,0.42,0.9,-747.0,5.225,91258.234,873.976,5.219,91263.984,874.524,-6977.750,0.3,1.892,-74.357,4.79,0.283
19829,2,19829,40,0.282,0.546,0.457,40.710,11.897,32.841,0.11,0.39,0.8,-747.0,0.272,0.466,0.442,40.514,11.736,32.724,0.10,0.39,0.9,-747.0,5.224,91257.351,873.976,5.219,91256.23,873.706,-6996.152,0.0,2.0,-72.132,4.92,0.280
19865,2,19865,36,0.357,0.519,0.462,40.789,11.891,32.665,0.12,0.38,0.9,-747.0,0.430,0.495,0.549,40.602,11.824,32.505,0.10,0.35,0.11,-747.0,5.222,91258.46,874.36,5.219,91257.218,874.524,-7012.713,0.1,1.943,-73.233,4.92,0.283
19904,2,19904,39,0.366,0.489,0.457,40.827,11.920,32.668,0.12,0.39,0.10,-747.0,0.430,0.473,0.470,40.850,12.204,32.622,0.17,0.38,0.11,-747.0,5.223,91258.968,874.12,5.229,91256.23,873.502,-7030.655,0.0,2.24,-71.603,4.92,0.280
19941,2,19941,37,0.393,0.472,0.460,40.783,11.879,32.665,0.12,0.39,0.10,-747.0,0.459,0.423,0.499,41.186,12.57,33.133,0.10,0.40,0.12,-747.0,5.221,91257.648,873.992,5.219,91254.968,873.706,-7047.650,0.0,2.19,-71.726,4.92,0.282
19978,2,19978,37,0.407,0.465,0.456,40.853,12.8,32.703,0.11,0.39,0.10,-747.0,0.445,0.466,0.320,41.113,12.218,32.534,0.9,0.42,0.6,-747.0,5.221,91257.828,873.911,5.219,91264.906,874.115,-7064.619,0.2,2.88,-70.443,4.92,0.279
20017,2,20017,39,0.423,0.485,0.447,41.11,12.180,32.797,0.11,0.38,0.9,-747.0,0.351,0.567,0.399,41.303,12.598,33.192,0.9,0.37,0.5,-747.0,5.223,91259.843,873.973,5.229,91266.101,874.19,-7082.253,0.1,1.941,-73.338,4.99,0.274
20054,2,20054,37,0.401,0.488,0.420,41.37,12.323,32.890,0.10,0.38,0.8,-747.0,0.323,0.509,0.413,40.733,12.540,32.972,0.8,0.34,0.8,-747.0,5.225,91260.31,873.851,5.229,91258.148,873.911,-7098.318,0.3,2.139,-69.534,4.92,0.257
20093,2,20093,39,0.370,0.518,0.419,41.31,12.347,32.920,0.9,0.38,0.7,-747.0,0.272,0.624,0.463,40.821,12.320,32.768,0.10,0.39,0.7,-747.0,5.224,91260.210,873.954,5.224,91256.953,874.19,-7114.692,0.2,1.906,-74.88,4.92,0.257
20130,2,20130,37,0.357,0.508,0.400,41.55,12.394,32.914,0.9,0.38,0.6,-747.0,0.394,0.373,0.406,41.303,12.291,33.104,0.12,0.38,0.5,-747.0,5.223,91261.85,873.954,5.215,91259.343,873.706,-7129.855,0.0,2.0,-72.152,4.92,0.245
20170,2,20170,40,0.360,0.505,0.410,40.982,12.411,33.86,0.10,0.38,0.7,-747.0,0.459,0.452,0.370,40.748,12.306,33.396,0.11,0.42,0.11,-747.0,5.225,91260.421,873.891,5.229,91261.593,873.802,-7146.75,0.1,2.66,-70.890,4.92,0.251
20207,2,20207,37,0.380,0.483,0.410,40.932,12.332,33.154,0.10,0.38,0.8,-747.0,0.452,0.459,0.399,41.55,12.204,33.528,0.10,0.36,0.10,-747.0,5.222,91258.382,873.951,5.215,91255.890,874.319,-7161.264,0.1,1.943,-73.315,4.92,0.251
21299,2,21299,1092,0.384,0.491,0.404,41.34,12.329,33.31,0.11,0.38,0.8,-747.0,0.344,0.545,0.384,41.245,12.525,32.358,0.14,0.36,0.8,-747.0,5.221,91258.734,873.862,5.224,91259.890,873.465,-7606.409,0.0,2.98,-70.315,4.99,0.248
21343,2,21343,44,0.379,0.479,0.391,41.31,12.315,33.48,0.11,0.38,0.9,-747.0,0.244,0.567,0.399,40.806,12.247,32.855,0.7,0.35,0.10,-747.0,5.201,91258.812,873.900,5.122,91257.367,874.210,-7623.935,0.0,1.963,-72.950,4.99,0.240
21380,2,21380,37,0.376,0.495,0.410,40.891,12.303,32.984,0.11,0.38,0.10,-747.0,0.380,0.452,0.499,40.602,12.233,32.782,0.14,0.43,0.12,-747.0,5.187,91258.796,874.8,5.145,91259.218,874.246,-7638.779,0.2,1.902,-74.102,4.99,0.251
21420,2,21420,40,0.367,0.486,0.416,40.836,12.297,32.727,0.11,0.39,0.10,-747.0,0.416,0.409,0.399,40.470,12.277,32.110,0.12,0.43,0.7,-747.0,5.176,91257.812,873.955,5.173,91256.695,873.537,-7655.314,0.1,2.55,-71.27,4.99,0.255
21456,2,21456,36,0.379,0.508,0.447,40.672,12.315,32.510,0.11,0.40,0.9,-747.0,0.509,0.567,0.556,40.236,12.291,32.446,0.9,0.40,0.7,-747.0,5.168,91259.296,873.842,5.178,91263.328,873.754,-7670.868,0.3,2.127,-69.759,4.92,0.274
21495,2,21495,39,0.401,0.463,0.477,40.605,12.318,32.443,0.10,0.41,0.9,-747.0,0.459,0.323,0.535,40.909,12.540,32.22,0.10,0.42,0.6,-747.0,5.161,91259.296,873.965,5.187,91259.875,874.78,-7688.922,0.3,1.890,-74.388,4.92,0.293
21532,2,21532,37,0.466,0.470,0.511,40.608,12.449,32.306,0.10,0.42,0.9,-747.0,0.567,0.602,0.564,40.821,12.905,32.168,0.6,0.40,0.11,-747.0,5.175,91260.671,873.857,5.191,91264.250,873.670,-7707.218,0.2,2.121,-69.862,4.99,0.313
21571,2,21571,39,0.493,0.492,0.522,40.619,12.475,32.160,0.9,0.41,0.8,-747.0,0.516,0.559,0.556,40.660,12.364,32.52,0.11,0.40,0.10,-747.0,5.185,91261.226,873.946,5.196,91262.0,874.692,-7727.372,0.2,1.918,-73.831,4.99,0.320
21608,2,21608,37,0.468,0.541,0.492,40.608,12.496,32.166,0.9,0.40,0.9,-747.0,0.287,0.653,0.248,40.412,12.379,32.139,0.9,0.36,0.9,-747.0,5.189,91261.601,874.38,5.191,91258.546,873.994,-7746.146,0.2,1.916,-73.782,4.92,0.301
21645,2,21645,37,0.447,0.522,0.456,40.654,12.557,32.215,0.9,0.38,0.10,-747.0,0.409,0.473,0.377,40.470,12.598,32.695,0.10,0.34,0.14,-747.0,5.192,91261.93,874.23,5.196,91260.804,873.682,-7763.699,0.0,2.14,-71.778,4.92,0.279
21684,2,21684,39,0.449,0.557,0.387,40.496,12.478,32.215,0.9,0.37,0.10,-747.0,0.466,0.495,0.190,40.119,12.145,32.22,0.8,0.33,0.7,-747.0,5.195,91261.734,873.966,5.201,91263.54,873.790,-7780.157,0.1,2.61,-70.919,4.92,0.237
21721,2,21721,37,0.403,0.526,0.364,40.201,12.294,32.230,0.9,0.37,0.10,-747.0,0.337,0.452,0.449,39.345,11.984,32.242,0.8,0.44,0.12,-747.0,5.196,91260.828,873.867,5.196,91259.742,873.178,-7794.71,0.2,2.109,-70.86,4.99,0.223
21760,2,21760,39,0.414,0.495,0.344,39.991,12.244,32.282,0.10,0.37,0.10,-747.0,0.574,0.401,0.456,39.608,12.116,32.315,0.14,0.40,0.8,-747.0,5.198,91260.351,873.725,5.205,91259.609,873.983,-7807.897,0.3,2.165,-69.173,4.92,0.211
21797,2,21797,37,0.414,0.456,0.348,39.845,12.174,32.285,0.10,0.36,0.10,-747.0,0.287,0.459,0.269,39.681,12.28,32.154,0.11,0.29,0.12,-747.0,5.200,91261.15,873.745,5.201,91261.867,874.90,-7820.723,0.0,1.981,-72.735,4.92,0.213
21836,2,21836,39,0.410,0.470,0.338,39.842,12.128,32.250,0.11,0.36,0.9,-747.0,0.387,0.545,0.327,40.456,12.364,32.519,0.12,0.34,0.8,-747.0,5.201,91262.828,873.641,5.201,91269.820,873.165,-7834.129,0.2,2.115,-70.192,4.99,0.207
21878,2,21878,42,0.401,0.462,0.367,40.122,12.113,32.367,0.11,0.37,0.9,-747.0,0.423,0.452,0.334,41.522,12.72,32.607,0.11,0.36,0.7,-747.0,5.200,91262.609,873.538,5.196,91262.0,873.273,-7848.958,0.2,2.115,-70.298,4.99,0.225
21914,2,21914,36,0.394,0.463,0.367,40.342,12.183,32.405,0.11,0.36,0.9,-747.0,0.301,0.459,0.449,40.441,12.335,32.432,0.9,0.41,0.9,-747.0,5.200,91262.164,873.595,5.196,91257.492,873.466,-7862.187,0.1,1.945,-73.616,4.92,0.225
21954,2,21954,40,0.358,0.498,0.371,40.546,12.224,32.364,0.11,0.36,0.9,-747.0,0.394,0.574,0.477,40.631,12.320,32.110,0.13,0.39,0.10,-747.0,5.197,91263.85,873.552,5.191,91264.250,873.766,-7876.970,0.1,2.45,-71.639,4.99,0.227
21990,2,21990,36,0.390,0.469,0.426,40.821,12.338,32.543,0.11,0.37,0.9,-747.0,0.445,0.315,0.542,41.55,12.598,33.45,0.10,0.36,0.9,-747.0,5.197,91262.875,873.408,5.201,91260.804,873.369,-7891.335,0.4,2.168,-69.425,4.99,0.261
22029,2,22029,39,0.360,0.437,0.449,40.950,12.332,32.601,0.9,0.36,0.7,-747.0,0.236,0.387,0.442,41.99,12.335,32.812,0.4,0.30,0.3,-747.0,5.194,91261.125,873.528,5.187,91261.70,873.766,-7908.409,0.3,1.892,-74.795,4.92,0.275
22066,2,22066,37,0.387,0.433,0.452,40.768,12.502,32.513,0.9,0.36,0.8,-747.0,0.559,0.430,0.348,40.616,12.920,32.168,0.8,0.33,0.12,-747.0,5.193,91259.984,873.629,5.191,91256.296,873.778,-7925.85,0.2,1.908,-74.364,4.99,0.277
22105,2,22105,39,0.354,0.423,0.470,40.809,12.487,32.551,0.9,0.35,0.8,-747.0,0.136,0.409,0.542,40.646,12.262,32.622,0.8,0.38,0.8,-747.0,5.192,91261.125,873.689,5.191,91263.195,873.766,-7943.83,0.1,1.943,-73.568,4.99,0.288
22142,2,22142,37,0.301,0.396,0.467,40.833,12.546,32.660,0.8,0.34,0.8,-747.0,0.129,0.437,0.463,40.748,12.613,32.651,0.9,0.34,0.7,-747.0,5.192,91259.585,873.752,5.191,91256.562,874.78,-7960.450,0.1,1.941,-73.548,4.99,0.286
22179,2,22179,37,0.311,0.460,0.446,40.722,12.534,32.525,0.9,0.36,0.7,-747.0,0.495,0.638,0.434,40.499,12.540,32.373,0.16,0.45,0.4,-747.0,5.188,91258.953,873.831,5.178,91257.625,873.766,-7977.366,0.2,1.926,-73.775,4.99,0.273
22218,2,22218,39,0.363,0.468,0.457,40.681,12.554,32.478,0.10,0.36,0.8,-747.0,0.495,0.423,0.499,40.894,12.437,32.578,0.8,0.32,0.8,-747.0,5.189,91257.601,873.973,5.191,91254.312,874.474,-7995.0,0.3,1.875,-74.708,4.99,0.280
22255,2,22255,37,0.321,0.482,0.452,40.768,12.426,32.510,0.9,0.37,0.8,-747.0,0.351,0.502,0.320,41.55,12.277,32.329,0.3,0.37,0.10,-747.0,5.188,91258.546,874.90,5.187,91261.70,874.366,-8011.835,0.3,1.894,-74.187,4.99,0.277
22294,2,22294,39,0.379,0.525,0.399,40.640,12.499,32.548,0.9,0.35,0.8,-747.0,0.423,0.624,0.276,40.2,12.627,32.812,0.9,0.27,0.9,-747.0,5.187,91258.335,874.150,5.187,91262.132,874.67,-8028.434,0.1,1.943,-73.107,4.99,0.244
22331,2,22331,37,0.386,0.522,0.397,40.584,12.446,32.633,0.9,0.35,0.7,-747.0,0.165,0.423,0.456,40.470,12.350,33.75,0.8,0.33,0.3,-747.0,5.186,91259.242,874.47,5.187,91261.70,873.561,-8043.171,0.2,2.115,-69.790,4.92,0.243
22371,2,22371,40,0.380,0.508,0.452,40.479,12.388,32.674,0.7,0.34,0.8,-747.0,0.466,0.567,0.707,39.973,12.247,32.578,0.9,0.42,0.8,-747.0,5.190,91259.0,873.984,5.196,91256.429,873.454,-8060.166,0.1,2.66,-70.790,4.99,0.277
22420,2,22420,49,0.350,0.489,0.442,40.350,12.347,32.718,0.9,0.33,0.7,-747.0,0.344,0.330,0.449,40.251,12.233,32.797,0.14,0.29,0.6,-747.0,5.188,91259.687,873.802,5.182,91257.757,873.561,-8082.75,0.3,2.223,-68.24,4.99,0.271
22456,2,22456,36,0.340,0.496,0.447,40.306,12.434,32.750,0.10,0.33,0.6,-747.0,0.301,0.538,0.348,40.836,12.715,32.490,0.9,0.35,0.4,-747.0,5.187,91259.687,873.660,5.182,91261.70,873.658,-8098.94,0.3,2.165,-69.237,4.99,0.274
22496,2,22496,40,0.356,0.460,0.470,40.523,12.385,32.715,0.10,0.35,0.7,-747.0,0.502,0.445,0.391,41.84,12.379,32.636,0.13,0.35,0.11,-747.0,5.187,91259.31,873.578,5.187,91258.820,873.658,-8116.467,0.2,2.89,-70.760,4.99,0.288
22532,2,22532,36,0.393,0.462,0.421,40.599,12.399,32.613,0.11,0.35,0.8,-747.0,0.351,0.430,0.212,40.850,12.423,32.563,0.8,0.32,0.8,-747.0,5.186,91259.31,873.680,5.182,91261.70,874.67,-8132.538,0.2,1.908,-74.312,4.99,0.258
22571,2,22571,39,0.348,0.453,0.367,40.792,12.510,32.607,0.10,0.35,0.8,-747.0,0.244,0.524,0.434,40.938,12.803,32.548,0.7,0.42,0.9,-747.0,5.184,91259.46,873.764,5.187,91256.562,873.875,-8147.932,0.2,1.922,-73.925,4.99,0.225
22608,2,22608,37,0.348,0.501,0.380,40.903,12.551,32.557,0.11,0.35,0.8,-747.0,0.344,0.567,0.513,40.806,12.437,32.548,0.16,0.32,0.8,-747.0,5.186,91260.375,873.946,5.191,91264.382,874.474,-8161.766,0.4,1.845,-75.389,4.99,0.233
22648,2,22648,40,0.367,0.475,0.434,40.853,12.426,32.607,0.11,0.35,0.9,-747.0,0.394,0.409,0.621,40.587,12.87,32.738,0.12,0.35,0.8,-747.0,5.186,91259.898,873.927,5.182,91258.687,873.561,-8178.72,0.0,2.19,-71.775,4.99,0.266
22684,2,22684,36,0.343,0.479,0.490,40.853,12.417,32.633,0.10,0.35,0.9,-747.0,0.380,0.466,0.671,41.84,12.335,32.768,0.8,0.35,0.11,-747.0,5.186,91261.226,873.908,5.187,91265.445,873.561,-8194.737,0.0,2.19,-71.790,4.99,0.301
22721,2,22721,37,0.367,0.525,0.511,40.768,12.420,32.645,0.12,0.36,0.8,-747.0,0.473,0.660,0.312,40.426,12.437,32.622,0.18,0.35,0.5,-747.0,5.187,91261.203,873.848,5.187,91260.937,873.766,-8213.272,0.1,2.63,-70.978,4.99,0.313
22760,2,22760,39,0.374,0.506,0.488,40.768,12.358,32.645,0.13,0.34,0.7,-747.0,0.279,0.430,0.320,40.938,12.496,32.548,0.13,0.35,0.2,-747.0,5.186,91262.101,873.845,5.182,91261.70,873.862,-8232.753,0.0,2.2,-72.201,4.99,0.299
22797,2,22797,37,0.368,0.502,0.437,40.727,12.344,32.674,0.10,0.36,0.6,-747.0,0.315,0.545,0.262,40.602,12.364,32.695,0.1,0.40,0.7,-747.0,5.185,91261.414,873.905,5.187,91260.937,874.775,-8249.881,0.1,1.943,-73.347,4.99,0.268
22836,2,22836,39,0.347,0.493,0.486,40.760,12.394,32.633,0.10,0.35,0.6,-747.0,0.287,0.366,0.865,40.748,12.335,32.534,0.8,0.32,0.5,-747.0,5.186,91262.546,873.968,5.187,91264.382,873.875,-8267.907,0.1,1.941,-73.331,4.99,0.298
22873,2,22873,37,0.323,0.473,0.444,40.491,12.443,32.604,0.10,0.35,0.5,-747.0,0.258,0.366,0.463,39.739,12.584,32.622,0.9,0.31,0.9,-747.0,5.186,91262.546,873.906,5.187,91265.445,873.250,-8285.141,0.1,2.66,-70.868,4.99,0.272
22924,2,22924,51,0.304,0.469,0.503,40.570,12.417,32.613,0.8,0.36,0.5,-747.0,0.380,0.638,0.607,40.821,12.306,32.665,0.11,0.41,0.5,-747.0,5.186,91263.265,873.985,5.187,91264.523,874.162,-8309.335,0.1,1.926,-73.614,4.99,0.309
22960,2,22960,36,0.335,0.470,0.541,40.584,12.391,32.692,0.9,0.35,0.6,-747.0,0.437,0.437,0.506,41.11,12.364,32.943,0.15,0.33,0.6,-747.0,5.184,91264.203,873.982,5.173,91265.710,873.849,-8328.145,0.0,2.2,-72.55,4.99,0.331
23000,2,23000,40,0.343,0.469,0.577,40.552,12.402,32.671,0.10,0.35,0.7,-747.0,0.351,0.538,0.442,40.441,12.423,32.592,0.7,0.38,0.12,-747.0,5.181,91264.15,873.735,5.173,91260.15,873.537,-8350.509,0.6,2.328,-66.216,4.99,0.353
23036,2,23036,36,0.377,0.503,0.482,40.686,12.417,32.645,0.10,0.36,0.8,-747.0,0.459,0.538,0.391,41.420,12.408,32.402,0.10,0.35,0.9,-747.0,5.179,91263.140,873.689,5.178,91260.15,873.646,-8369.578,0.1,2.48,-71.443,4.99,0.295
23073,2,23073,37,0.396,0.525,0.466,40.879,12.318,32.665,0.11,0.36,0.8,-747.0,0.351,0.473,0.384,40.704,12.87,32.724,0.12,0.34,0.10,-747.0,5.178,91261.125,873.790,5.182,91255.367,873.754,-8387.130,0.2,1.908,-74.193,4.99,0.286
23112,2,23112,39,0.371,0.512,0.424,40.827,12.323,32.581,0.10,0.35,0.9,-747.0,0.258,0.574,0.399,40.558,12.335,32.242,0.7,0.36,0.8,-747.0,5.178,91260.218,873.809,5.182,91260.15,874.258,-8404.512,0.0,1.981,-72.664,4.99,0.260
23149,2,23149,37,0.357,0.541,0.436,40.757,12.394,32.437,0.10,0.36,0.10,-747.0,0.366,0.581,0.564,40.660,12.715,32.227,0.13,0.40,0.11,-747.0,5.179,91258.390,873.771,5.182,91256.562,873.658,-8420.445,0.1,2.39,-71.530,4.99,0.267
23188,2,23188,39,0.353,0.546,0.443,40.827,12.396,32.341,0.11,0.36,0.9,-747.0,0.330,0.567,0.477,40.792,12.437,32.110,0.14,0.38,0.9,-747.0,5.180,91258.812,873.876,5.178,91262.132,874.67,-8437.603,0.2,1.904,-74.195,4.99,0.272
23225,2,23225,37,0.338,0.541,0.439,40.707,12.452,32.341,0.12,0.38,0.10,-747.0,0.387,0.509,0.370,40.821,12.686,32.402,0.13,0.41,0.10,-747.0,5.181,91259.484,873.961,5.182,91263.328,874.67,-8453.934,0.2,1.922,-73.730,4.99,0.269
23264,2,23264,39,0.363,0.524,0.439,40.675,12.493,32.402,0.11,0.38,0.9,-747.0,0.473,0.387,0.384,40.543,12.291,33.31,0.9,0.36,0.8,-747.0,5.180,91259.960,873.898,5.178,91257.757,873.441,-8471.64,0.1,2.66,-70.871,4.99,0.269
23301,2,23301,37,0.394,0.498,0.433,40.716,12.423,32.475,0.12,0.37,0.9,-747.0,0.416,0.445,0.370,40.762,11.984,32.607,0.10,0.32,0.9,-747.0,5.181,91258.812,873.879,5.187,91254.312,874.162,-8487.209,0.0,2.19,-71.824,4.99,0.265
23338,2,23338,37,0.387,0.486,0.411,40.686,12.388,32.560,0.11,0.36,0.8,-747.0,0.330,0.524,0.456,40.514,12.540,32.651,0.10,0.34,0.7,-747.0,5.181,91259.687,873.901,5.182,91260.937,873.766,-8502.850,0.0,1.978,-72.623,4.105,0.252
23379,2,23379,41,0.404,0.493,0.423,40.578,12.391,32.686,0.10,0.36,0.8,-747.0,0.416,0.602,0.535,40.251,12.452,32.738,0.10,0.35,0.8,-747.0,5.182,91259.476,873.778,5.182,91261.70,873.454,-8519.975,0.2,2.139,-69.596,4.99,0.259
23426,2,23426,47,0.401,0.498,0.446,40.599,12.364,32.712,0.11,0.35,0.9,-747.0,0.373,0.531,0.485,40.923,12.554,32.534,0.16,0.37,0.12,-747.0,5.183,91257.914,873.696,5.187,91255.507,873.658,-8540.416,0.1,2.89,-70.641,4.99,0.273
23466,2,23466,40,0.379,0.521,0.453,40.610,12.335,32.648,0.11,0.35,0.10,-747.0,0.358,0.502,0.420,40.602,12.145,32.709,0.11,0.36,0.12,-747.0,5.182,91258.132,873.841,5.173,91258.820,874.162,-8558.416,0.3,1.873,-74.881,4.99,0.278
23502,2,23502,36,0.350,0.539,0.447,40.499,12.481,32.639,0.12,0.36,0.9,-747.0,0.272,0.538,0.341,40.207,12.715,32.563,0.13,0.38,0.9,-747.0,5.182,91259.718,873.819,5.187,91262.265,874.54,-8574.642,0.0,2.22,-71.831,4.99,0.274
23541,2,23541,39,0.360,0.544,0.434,40.537,12.399,32.662,0.12,0.37,0.10,-747.0,0.380,0.545,0.391,40.704,12.130,32.768,0.8,0.39,0.8,-747.0,5.181,91260.218,873.917,5.178,91263.460,874.258,-8591.856,0.2,1.910,-74.25,4.99,0.266
23578,2,23578,37,0.357,0.528,0.430,40.704,12.399,32.610,0.12,0.38,0.9,-747.0,0.401,0.524,0.513,41.84,12.452,32.475,0.10,0.41,0.6,-747.0,5.179,91260.250,873.996,5.173,91261.203,873.849,-8607.869,0.2,1.926,-73.600,4.99,0.264
23617,2,23617,39,0.344,0.506,0.433,40.570,12.364,32.578,0.11,0.37,0.8,-747.0,0.308,0.423,0.499,40.251,12.379,32.373,0.14,0.31,0.6,-747.0,5.178,91261.148,874.160,5.178,91260.15,874.474,-8624.718,0.4,1.859,-74.868,4.99,0.265
23654,2,23654,37,0.327,0.493,0.442,40.660,12.516,32.528,0.11,0.37,0.7,-747.0,0.272,0.437,0.463,41.55,12.905,32.461,0.9,0.38,0.7,-747.0,5.178,91260.500,873.994,5.178,91255.507,873.334,-8640.916,0.4,2.198,-68.279,4.99,0.271
23691,2,23691,37,0.343,0.489,0.459,40.786,12.408,32.502,0.11,0.37,0.8,-747.0,0.351,0.516,0.427,40.836,12.174,32.432,0.14,0.36,0.10,-747.0,5.178,91259.593,873.972,5.182,91257.757,873.946,-8657.593,0.0,2.22,-71.676,4.99,0.281
23730,2,23730,39,0.318,0.453,0.453,40.698,12.452,32.513,0.12,0.37,0.8,-747.0,0.258,0.366,0.363,40.266,12.350,32.826,0.13,0.38,0.8,-747.0,5.177,91258.921,873.912,5.173,91260.148,873.958,-8675.395,0.1,2.63,-70.914,4.99,0.278
23767,2,23767,37,0.312,0.435,0.410,40.631,12.274,32.528,0.11,0.37,0.8,-747.0,0.373,0.430,0.298,40.748,11.560,32.548,0.8,0.42,0.9,-747.0,5.178,91258.265,873.932,5.178,91257.890,873.946,-8691.380,0.0,1.981,-72.545,4.99,0.251
23806,2,23806,39,0.334,0.470,0.401,40.722,12.271,32.502,0.10,0.38,0.8,-747.0,0.416,0.602,0.456,40.704,12.364,32.242,0.9,0.38,0.7,-747.0,5.177,91259.828,873.763,5.173,91267.835,873.634,-8707.222,0.4,2.201,-68.448,4.99,0.246
23843,2,23843,37,0.335,0.465,0.399,40.713,12.142,32.449,0.11,0.38,0.9,-747.0,0.279,0.409,0.449,41.11,12.262,32.198,0.10,0.36,0.9,-747.0,5.176,91261.203,873.782,5.173,91262.398,873.429,-8722.40,0.0,1.981,-72.684,4.99,0.244
23882,2,23882,39,0.324,0.468,0.397,40.669,12.160,32.373,0.10,0.38,0.8,-747.0,0.294,0.531,0.420,40.616,12.262,32.52,0.11,0.38,0.6,-747.0,5.174,91262.343,873.763,5.173,91263.460,873.849,-8737.574,0.0,2.19,-71.932,4.99,0.243
23924,2,23924,42,0.363,0.489,0.413,40.701,12.113,32.244,0.10,0.37,0.7,-747.0,0.452,0.473,0.442,40.426,12.116,32.183,0.13,0.34,0.6,-747.0,5.174,91263.250,873.739,5.173,91264.656,873.837,-8754.604,0.0,2.24,-71.851,4.99,0.253
23960,2,23960,36,0.368,0.515,0.442,40.707,12.247,32.227,0.11,0.36,0.7,-747.0,0.401,0.559,0.442,40.777,12.233,32.461,0.12,0.36,0.5,-747.0,5.171,91263.945,873.617,5.164,91261.343,873.334,-8770.2,0.3,2.139,-69.751,4.99,0.271
24000,2,24000,40,0.341,0.485,0.440,40.640,12.209,32.294,0.12,0.36,0.7,-747.0,0.279,0.452,0.449,40.368,12.174,32.578,0.13,0.37,0.9,-747.0,5.169,91261.984,873.698,5.164,91258.23,874.42,-8787.658,0.2,1.924,-73.941,4.105,0.270
24036,2,24036,36,0.353,0.512,0.449,40.575,12.265,32.338,0.12,0.37,0.8,-747.0,0.337,0.545,0.492,40.689,12.540,32.417,0.10,0.39,0.12,-747.0,5.168,91261.289,873.821,5.168,91258.953,874.42,-8803.676,0.3,1.890,-74.531,4.99,0.275
24076,2,24076,40,0.360,0.499,0.440,40.549,12.262,32.548,0.13,0.36,0.8,-747.0,0.330,0.466,0.377,40.485,12.247,33.104,0.14,0.35,0.8,-747.0,5.167,91260.414,873.758,5.168,91259.85,873.537,-8821.475,0.1,2.66,-71.11,4.99,0.270
24112,2,24112,36,0.351,0.506,0.456,40.643,12.288,32.633,0.12,0.38,0.8,-747.0,0.409,0.509,0.521,40.894,12.247,32.607,0.10,0.40,0.7,-747.0,5.165,91261.312,873.677,5.164,91269.164,873.429,-8837.624,0.2,2.88,-70.657,4.99,0.279
24152,2,24152,40,0.348,0.495,0.463,40.722,12.250,32.610,0.12,0.37,0.9,-747.0,0.387,0.502,0.477,41.172,12.43,32.344,0.12,0.34,0.7,-747.0,5.166,91261.296,873.838,5.168,91261.203,874.138,-8856.25,0.4,1.861,-75.143,4.99,0.284
24188,2,24188,36,0.360,0.498,0.434,40.868,12.242,32.680,0.11,0.37,0.8,-747.0,0.337,0.466,0.305,41.99,12.130,32.928,0.11,0.37,0.8,-747.0,5.167,91261.687,873.898,5.168,91260.15,874.342,-8872.199,0.1,1.943,-73.351,4.99,0.266
24225,2,24225,37,0.367,0.501,0.423,41.28,12.139,32.820,0.12,0.37,0.8,-747.0,0.373,0.559,0.434,41.493,12.28,33.118,0.12,0.38,0.8,-747.0,5.167,91262.375,873.859,5.168,91262.398,873.849,-8888.79,0.1,2.40,-71.426,4.99,0.259
24264,2,24264,39,0.377,0.524,0.440,40.988,12.171,32.689,0.11,0.36,0.8,-747.0,0.380,0.581,0.463,40.280,12.408,32.446,0.12,0.31,0.7,-747.0,5.166,91261.468,873.859,5.164,91254.578,873.537,-8904.928,0.0,2.0,-72.228,4.99,0.270
24301,2,24301,37,0.344,0.524,0.409,40.917,12.265,32.695,0.11,0.35,0.8,-747.0,0.244,0.509,0.363,40.543,12.715,32.636,0.9,0.36,0.7,-747.0,5.165,91260.109,873.919,5.159,91262.398,873.729,-8920.649,0.1,1.943,-73.328,4.105,0.250
24340,2,24340,39,0.341,0.524,0.373,40.836,12.373,32.747,0.11,0.35,0.8,-747.0,0.373,0.502,0.298,40.762,12.584,32.607,0.11,0.34,0.10,-747.0,5.164,91260.148,874.1,5.159,91261.343,874.547,-8935.903,0.2,1.924,-73.639,4.99,0.228
24378,2,24378,38,0.315,0.532,0.390,40.903,12.399,32.636,0.11,0.35,0.8,-747.0,0.208,0.509,0.391,41.435,12.262,32.373,0.11,0.39,0.9,-747.0,5.163,91259.54,873.900,5.164,91254.578,873.837,-8950.412,0.2,2.112,-69.982,4.105,0.239
24416,2,24416,38,0.268,0.559,0.322,40.876,12.481,32.528,0.10,0.35,0.8,-747.0,0.136,0.696,0.97,41.362,12.437,32.578,0.6,0.38,0.7,-747.0,5.163,91258.609,874.20,5.168,91260.148,874.451,-8963.965,0.3,1.892,-74.294,4.99,0.198
25178,2,25178,762,0.252,0.535,0.311,40.941,12.458,32.551,0.10,0.37,0.8,-747.0,0.301,0.459,0.406,40.602,12.291,32.563,0.11,0.38,0.9,-747.0,5.162,91259.625,874.92,5.159,91259.625,873.897,-9205.667,0.0,1.932,-73.371,4.99,0.191
25546,2,25546,368,0.272,0.531,0.325,40.970,12.472,32.531,0.9,0.36,0.8,-747.0,0.344,0.488,0.434,40.689,12.788,32.534,0.7,0.33,0.7,-747.0,5.141,91258.406,874.63,5.57,91256.312,873.584,-9322.923,0.0,2.29,-71.422,4.105,0.199
25584,2,25584,38,0.254,0.535,0.355,41.17,12.458,32.566,0.9,0.38,0.8,-747.0,0.279,0.524,0.449,40.996,12.510,32.782,0.11,0.43,0.10,-747.0,5.121,91258.890,874.20,5.57,91263.734,874.330,-9335.876,0.1,2.45,-71.153,4.105,0.218
25620,2,25620,36,0.275,0.541,0.358,41.55,12.461,32.604,0.10,0.39,0.8,-747.0,0.315,0.538,0.406,41.625,12.277,32.563,0.13,0.40,0.9,-747.0,5.104,91259.546,874.22,5.80,91257.898,873.849,-9348.743,0.0,1.997,-72.91,4.105,0.220
25660,2,25660,40,0.317,0.503,0.430,40.993,12.551,32.586,0.11,0.38,0.9,-747.0,0.344,0.509,0.456,41.55,12.890,32.490,0.12,0.34,0.10,-747.0,5.90,91259.484,873.926,5.99,91259.890,873.969,-9364.532,0.2,2.106,-70.46,4.99,0.264
25696,2,25696,36,0.333,0.511,0.427,41.104,12.592,32.624,0.11,0.38,0.9,-747.0,0.380,0.495,0.391,41.157,12.496,32.753,0.11,0.38,0.11,-747.0,5.81,91259.726,873.923,5.113,91260.812,873.885,-9379.982,0.0,2.2,-72.87,4.105,0.262
25740,2,25740,44,0.347,0.521,0.420,41.145,12.546,32.569,0.11,0.39,0.10,-747.0,0.416,0.538,0.399,40.894,12.554,32.256,0.10,0.37,0.9,-747.0,5.95,91261.265,874.87,5.127,91263.992,874.402,-9398.645,0.3,1.859,-74.911,4.105,0.257
25776,2,25776,36,0.366,0.505,0.429,41.262,12.510,32.548,0.12,0.37,0.8,-747.0,0.373,0.445,0.492,41.581,12.335,32.680,0.14,0.34,0.3,-747.0,5.110,91259.968,874.82,5.131,91257.234,874.305,-9413.940,0.0,2.4,-71.889,4.105,0.263
25816,2,25816,40,0.363,0.498,0.452,41.175,12.543,32.551,0.12,0.37,0.8,-747.0,0.301,0.502,0.521,41.186,12.437,32.578,0.13,0.40,0.7,-747.0,5.122,91260.710,874.135,5.140,91261.609,874.114,-9431.567,0.1,1.949,-72.967,4.105,0.277
25852,2,25852,36,0.360,0.498,0.447,41.157,12.443,32.546,0.12,0.37,0.7,-747.0,0.330,0.509,0.434,40.967,12.394,32.461,0.12,0.37,0.7,-747.0,5.130,91259.914,874.248,5.140,91255.906,874.535,-9447.767,0.3,1.898,-73.929,4.105,0.274
25889,2,25889,37,0.358,0.498,0.437,41.160,12.379,32.493,0.12,0.36,0.7,-747.0,0.373,0.495,0.341,41.172,12.174,32.490,0.12,0.35,0.11,-747.0,5.137,91258.937,874.315,5.145,91255.906,874.222,-9464.151,0.1,1.936,-73.58,4.99,0.268
25928,2,25928,39,0.350,0.488,0.439,41.224,12.230,32.505,0.12,0.37,0.7,-747.0,0.373,0.488,0.406,41.216,11.809,32.315,0.7,0.37,0.7,-747.0,5.143,91258.187,874.220,5.159,91260.281,873.922,-9481.252,0.2,2.105,-69.782,4.99,0.269
25965,2,25965,37,0.338,0.509,0.414,41.78,12.163,32.432,0.11,0.37,0.8,-747.0,0.315,0.552,0.370,40.850,11.999,32.315,0.11,0.36,0.10,-747.0,5.148,91258.140,874.83,5.154,91256.968,873.622,-9497.52,0.3,2.158,-68.928,4.105,0.254
26004,2,26004,39,0.324,0.506,0.386,40.950,12.110,32.481,0.11,0.35,0.9,-747.0,0.229,0.488,0.377,40.543,12.174,32.826,0.11,0.31,0.9,-747.0,5.151,91257.203,873.984,5.154,91256.968,873.622,-9512.670,0.2,2.109,-69.960,4.105,0.236
26041,2,26041,37,0.318,0.512,0.399,40.970,12.157,32.475,0.10,0.35,0.9,-747.0,0.301,0.538,0.499,41.69,12.627,32.432,0.8,0.37,0.8,-747.0,5.154,91258.296,873.968,5.159,91261.343,874.451,-9527.196,0.0,2.17,-71.774,4.105,0.244
26080,2,26080,39,0.312,0.512,0.432,41.34,12.221,32.467,0.10,0.35,0.9,-747.0,0.344,0.495,0.506,41.493,12.496,32.446,0.11,0.32,0.10,-747.0,5.157,91260.281,873.872,5.159,91265.851,873.742,-9543.402,0.2,2.106,-70.125,4.99,0.264
26117,2,26117,37,0.304,0.506,0.449,40.973,12.280,32.554,0.10,0.34,0.10,-747.0,0.330,0.459,0.492,40.909,12.101,32.753,0.10,0.37,0.11,-747.0,5.156,91260.492,873.936,5.154,91261.343,874.246,-9559.707,0.1,1.939,-73.394,4.105,0.275
26154,2,26154,37,0.331,0.502,0.462,40.964,12.326,32.551,0.10,0.35,0.10,-747.0,0.452,0.531,0.434,40.806,12.233,32.300,0.10,0.37,0.12,-747.0,5.159,91259.109,874.20,5.168,91250.70,874.42,-9576.569,0.2,1.922,-73.661,4.105,0.283
26193,2,26193,39,0.361,0.506,0.450,41.34,12.256,32.411,0.10,0.35,0.10,-747.0,0.380,0.509,0.320,40.894,11.824,32.125,0.9,0.35,0.10,-747.0,5.161,91258.187,874.104,5.164,91252.328,874.42,-9594.371,0.2,1.922,-73.580,4.105,0.276
26230,2,26230,37,0.370,0.529,0.429,40.856,12.157,32.341,0.10,0.36,0.10,-747.0,0.344,0.653,0.391,40.178,12.130,32.81,0.11,0.38,0.5,-747.0,5.162,91256.171,874.64,5.164,91251.265,874.246,-9610.649,0.1,2.42,-71.176,4.99,0.263
26284,2,26284,54,0.366,0.532,0.407,40.768,12.104,32.303,0.10,0.36,0.9,-747.0,0.323,0.509,0.399,41.55,12.233,32.256,0.10,0.34,0.7,-747.0,5.164,91255.54,874.102,5.168,91260.281,873.934,-9633.243,0.0,1.963,-72.742,4.105,0.250
26320,2,26320,36,0.381,0.529,0.384,40.748,12.75,32.256,0.10,0.36,0.8,-747.0,0.409,0.445,0.377,40.806,11.955,32.519,0.13,0.38,0.7,-747.0,5.164,91254.625,874.39,5.154,91259.218,873.934,-9647.504,0.1,2.66,-70.731,4.105,0.235
26360,2,26360,40,0.384,0.522,0.367,40.684,12.142,32.309,0.10,0.36,0.8,-747.0,0.466,0.495,0.348,40.485,12.569,32.563,0.9,0.36,0.9,-747.0,5.162,91256.437,873.958,5.159,91259.85,873.634,-9662.546,0.2,2.88,-70.379,4.99,0.225
26396,2,26396,36,0.393,0.524,0.363,40.654,12.221,32.315,0.10,0.36,0.7,-747.0,0.423,0.516,0.298,40.748,12.218,32.154,0.5,0.33,0.8,-747.0,5.162,91257.335,873.999,5.164,91256.835,874.246,-9675.697,0.1,1.960,-72.890,4.105,0.222
26435,2,26435,39,0.412,0.488,0.373,40.765,12.282,32.253,0.10,0.36,0.8,-747.0,0.437,0.473,0.442,40.733,12.437,31.774,0.10,0.37,0.7,-747.0,5.163,91258.210,873.876,5.168,91255.640,873.634,-9690.55,0.3,2.139,-69.492,4.99,0.228
26472,2,26472,37,0.413,0.498,0.417,40.780,12.218,32.312,0.10,0.36,0.8,-747.0,0.330,0.559,0.621,41.128,11.911,32.548,0.11,0.37,0.8,-747.0,5.162,91258.640,873.876,5.164,91262.398,873.934,-9704.686,0.0,2.0,-72.212,4.105,0.256
26509,2,26509,37,0.409,0.503,0.446,40.748,12.233,32.242,0.10,0.36,0.8,-747.0,0.387,0.473,0.521,40.646,12.28,32.168,0.14,0.38,0.10,-747.0,5.165,91259.39,874.42,5.168,91261.203,874.763,-9720.671,0.4,1.857,-75.22,4.99,0.273
26549,2,26549,40,0.393,0.492,0.437,40.760,12.212,32.168,0.10,0.36,0.8,-747.0,0.387,0.437,0.305,40.543,12.467,32.198,0.8,0.36,0.7,-747.0,5.165,91258.132,874.224,5.164,91254.578,874.547,-9738.355,0.4,1.845,-75.105,4.105,0.268
26586,2,26586,37,0.361,0.509,0.447,40.795,12.171,32.236,0.11,0.37,0.8,-747.0,0.265,0.602,0.348,40.923,12.14,32.490,0.10,0.36,0.11,-747.0,5.165,91258.351,874.167,5.164,91257.890,873.958,-9754.739,0.1,2.61,-70.711,4.105,0.274
26624,2,26624,38,0.338,0.516,0.420,40.836,12.84,32.364,0.11,0.37,0.9,-747.0,0.323,0.509,0.305,40.938,11.999,32.417,0.11,0.37,0.8,-747.0,5.165,91258.554,874.251,5.168,91256.695,874.54,-9771.239,0.2,1.922,-73.434,4.105,0.257
26661,2,26661,37,0.327,0.511,0.399,40.903,12.166,32.326,0.10,0.38,0.9,-747.0,0.272,0.531,0.513,41.464,12.320,32.358,0.7,0.42,0.11,-747.0,5.168,91256.960,874.172,5.178,91254.445,873.537,-9786.401,0.2,2.86,-70.221,4.105,0.244
26700,2,26700,39,0.338,0.529,0.414,41.17,12.145,32.405,0.10,0.38,0.10,-747.0,0.445,0.567,0.600,41.216,11.926,32.563,0.14,0.39,0.11,-747.0,5.168,91256.750,874.8,5.168,91260.148,873.946,-9802.271,0.4,2.195,-68.324,4.99,0.254
26737,2,26737,37,0.338,0.522,0.450,41.198,12.34,32.470,0.10,0.38,0.10,-747.0,0.387,0.401,0.485,41.449,11.911,32.519,0.10,0.39,0.10,-747.0,5.170,91257.648,873.910,5.173,91259.85,874.54,-9818.284,0.2,2.109,-70.35,4.105,0.276
26785,2,26785,48,0.356,0.506,0.444,41.271,12.69,32.423,0.11,0.39,0.9,-747.0,0.351,0.524,0.320,41.289,12.189,32.256,0.11,0.37,0.5,-747.0,5.172,91258.101,873.886,5.173,91260.148,873.837,-9839.780,0.0,2.24,-71.709,4.105,0.272
26825,2,26825,40,0.358,0.503,0.455,41.245,12.166,32.437,0.11,0.39,0.10,-747.0,0.337,0.495,0.355,40.806,12.481,32.490,0.12,0.39,0.11,-747.0,5.173,91260.148,873.742,5.173,91266.906,873.334,-9857.780,0.3,2.168,-69.93,4.99,0.279
26861,2,26861,36,0.374,0.509,0.429,41.142,12.233,32.399,0.11,0.37,0.9,-747.0,0.351,0.559,0.384,40.952,12.657,32.168,0.7,0.34,0.7,-747.0,5.170,91261.78,873.862,5.164,91259.85,874.138,-9873.696,0.3,1.892,-74.448,4.105,0.263
26900,2,26900,39,0.361,0.521,0.414,41.175,12.247,32.323,0.10,0.37,0.9,-747.0,0.380,0.624,0.528,41.376,11.999,32.183,0.8,0.37,0.11,-747.0,5.169,91261.289,873.821,5.164,91261.203,873.742,-9890.154,0.1,2.42,-71.419,4.105,0.254
26937,2,26937,37,0.356,0.521,0.396,41.262,12.244,32.253,0.10,0.37,0.8,-747.0,0.358,0.401,0.391,41.888,11.897,32.168,0.11,0.36,0.7,-747.0,5.167,91261.734,873.718,5.164,91261.343,873.537,-9905.157,0.2,2.115,-70.110,4.105,0.242
26976,2,26976,39,0.387,0.508,0.420,41.289,12.221,32.250,0.10,0.37,0.10,-747.0,0.509,0.459,0.442,41.420,12.72,32.242,0.11,0.39,0.13,-747.0,5.166,91260.390,873.698,5.168,91253.382,873.742,-9921.83,0.0,2.19,-71.997,4.105,0.257
27013,2,27013,37,0.386,0.512,0.414,41.370,12.212,32.242,0.10,0.37,0.9,-747.0,0.330,0.516,0.327,41.216,12.437,32.446,0.12,0.37,0.8,-747.0,5.165,91258.578,873.801,5.164,91257.890,873.849,-9936.538,0.2,1.906,-74.217,4.105,0.254
27052,2,27052,39,0.399,0.501,0.404,41.423,12.151,32.306,0.10,0.37,0.10,-747.0,0.416,0.502,0.334,41.216,12.350,32.490,0.8,0.38,0.9,-747.0,5.166,91258.125,873.763,5.173,91256.835,873.946,-9952.520,0.0,2.39,-71.530,4.105,0.248
27089,2,27089,37,0.387,0.485,0.386,41.382,12.84,32.268,0.10,0.37,0.9,-747.0,0.323,0.545,0.434,41.172,11.663,31.993,0.10,0.36,0.7,-747.0,5.166,91258.578,873.701,5.164,91263.460,873.429,-9967.151,0.1,2.66,-71.67,4.105,0.236
27126,2,27126,37,0.379,0.505,0.404,41.332,12.119,32.326,0.10,0.37,0.8,-747.0,0.315,0.502,0.485,41.639,12.72,32.461,0.7,0.36,0.4,-747.0,5.168,91258.101,873.782,5.173,91258.953,873.946,-9981.782,0.2,1.924,-73.861,4.105,0.248
27165,2,27165,39,0.334,0.521,0.414,41.271,12.110,32.274,0.10,0.37,0.6,-747.0,0.287,0.538,0.492,41.113,12.28,31.978,0.10,0.38,0.3,-747.0,5.169,91259.226,873.804,5.173,91258.953,873.849,-9997.764,0.0,1.978,-72.713,4.105,0.254
27202,2,27202,37,0.344,0.515,0.427,41.400,12.46,32.250,0.9,0.37,0.6,-747.0,0.380,0.488,0.391,41.859,12.116,32.329,0.8,0.35,0.8,-747.0,5.170,91258.773,873.842,5.168,91255.640,874.42,-10013.352,0.1,1.962,-73.5,4.105,0.262
27242,2,27242,40,0.350,0.521,0.455,41.455,11.946,32.239,0.10,0.36,0.7,-747.0,0.445,0.531,0.470,41.493,11.853,32.432,0.12,0.36,0.11,-747.0,5.171,91259.882,873.821,5.178,91262.398,873.837,-10031.7,0.0,2.22,-71.827,4.105,0.279
27289,2,27289,47,0.344,0.505,0.457,41.490,11.970,32.215,0.10,0.37,0.7,-747.0,0.294,0.466,0.449,41.347,11.780,31.876,0.12,0.38,0.8,-747.0,5.173,91259.210,874.44,5.173,91260.148,874.547,-10052.460,0.4,1.817,-75.910,4.105,0.280
27329,2,27329,40,0.371,0.489,0.447,41.458,12.2,32.92,0.10,0.37,0.8,-747.0,0.452,0.423,0.434,41.479,12.233,31.847,0.8,0.40,0.8,-747.0,5.171,91258.125,874.61,5.164,91253.515,874.30,-10070.575,0.0,1.983,-72.365,4.105,0.274
27365,2,27365,36,0.394,0.455,0.457,41.505,12.87,32.180,0.10,0.37,0.8,-747.0,0.401,0.366,0.542,41.347,12.452,32.417,0.13,0.36,0.4,-747.0,5.167,91258.796,874.18,5.154,91262.265,873.634,-10086.877,0.1,2.44,-71.175,4.105,0.280
27402,2,27402,37,0.404,0.480,0.473,41.394,12.87,32.107,0.11,0.37,0.8,-747.0,0.430,0.617,0.470,41.303,12.116,31.964,0.11,0.38,0.8,-747.0,5.165,91259.250,873.895,5.154,91257.890,873.429,-10104.112,0.3,2.139,-69.470,4.105,0.290
27441,2,27441,39,0.383,0.472,0.459,41.344,12.142,32.40,0.11,0.38,0.6,-747.0,0.337,0.488,0.399,41.245,12.130,32.95,0.12,0.37,0.3,-747.0,5.163,91258.554,874.37,5.168,91258.953,874.547,-10122.305,0.3,1.875,-74.637,4.105,0.281
27478,2,27478,37,0.396,0.470,0.442,41.414,12.130,32.168,0.10,0.38,0.6,-747.0,0.358,0.459,0.363,41.698,11.721,32.519,0.7,0.37,0.9,-747.0,5.160,91260.773,873.917,5.159,91271.281,873.946,-10138.982,0.3,2.136,-69.505,4.105,0.271
27517,2,27517,39,0.374,0.516,0.437,41.356,12.90,32.274,0.10,0.37,0.7,-747.0,0.344,0.653,0.413,41.186,12.28,32.373,0.4,0.36,0.9,-747.0,5.163,91261.648,873.739,5.178,91257.890,873.141,-10156.140,0.4,2.216,-68.207,4.105,0.268
27554,2,27554,37,0.35,-1.698,0.643,41.327,11.897,32.221,0.10,0.40,0.11,-747.0,-1.292,-6.273,4.862,41.201,11.487,32.154,0.15,0.53,0.26,-747.0,5.165,91260.85,873.720,5.164,91254.445,873.537,-10152.338,0.0,2.19,-71.974,4.105,0.394
27594,2,27594,40,0.34,-1.652,0.631,41.379,11.797,32.411,0.10,0.41,0.11,-747.0,0.423,0.387,0.528,41.566,11.619,32.914,0.10,0.41,0.7,-747.0,5.167,91260.765,873.782,5.168,91261.203,873.742,-10126.836,0.1,1.941,-73.507,4.105,0.387
27631,2,27631,37,0.48,-1.663,0.636,41.368,11.715,32.508,0.10,0.41,0.12,-747.0,0.409,0.545,0.377,41.186,11.721,32.578,0.14,0.38,0.8,-747.0,5.167,91260.304,873.600,5.168,91256.695,873.634,-10103.380,0.4,2.223,-68.221,4.105,0.390
27670,2,27670,39,0.51,-1.662,0.637,41.391,11.710,32.510,0.11,0.40,0.11,-747.0,0.373,0.452,0.355,41.815,11.692,32.534,0.10,0.32,0.5,-747.0,5.169,91258.734,873.518,5.168,91263.460,873.537,-10078.544,0.2,2.88,-70.818,4.105,0.391
27707,2,27707,37,0.53,-1.643,0.641,41.426,11.786,32.496,0.11,0.40,0.10,-747.0,0.351,0.559,0.391,41.362,12.408,32.300,0.8,0.38,0.6,-747.0,5.166,91259.640,873.660,5.164,91262.398,873.849,-10054.875,0.3,1.875,-75.11,4.105,0.393
27744,2,27744,37,0.390,0.502,0.419,41.476,11.888,32.551,0.11,0.37,0.7,-747.0,0.394,0.567,0.442,41.449,11.999,32.432,0.12,0.38,0.12,-747.0,5.167,91261.437,873.660,5.168,91263.460,873.537,-10050.755,0.0,2.0,-72.427,4.105,0.257
27788,2,27788,44,0.387,0.506,0.393,41.537,11.888,32.405,0.11,0.36,0.8,-747.0,0.409,0.409,0.399,41.873,11.619,32.183,0.9,0.32,0.8,-747.0,5.167,91261.476,873.701,5.168,91261.343,873.946,-10068.628,0.0,1.960,-73.186,4.105,0.241
27824,2,27824,36,0.370,0.511,0.411,41.522,11.999,32.236,0.9,0.35,0.8,-747.0,0.323,0.567,0.470,41.113,12.277,31.730,0.7,0.36,0.11,-747.0,5.165,91262.828,873.782,5.159,91263.460,874.42,-10083.123,0.2,1.924,-73.856,4.105,0.252
27864,2,27864,40,0.379,0.511,0.423,41.423,12.31,32.107,0.10,0.36,0.9,-747.0,0.416,0.452,0.413,41.318,11.853,31.891,0.12,0.36,0.11,-747.0,5.165,91261.500,873.842,5.168,91256.835,873.837,-10099.831,0.1,1.943,-73.400,4.105,0.259
27900,2,27900,36,0.393,0.496,0.424,41.426,11.829,32.57,0.10,0.35,0.10,-747.0,0.423,0.488,0.399,41.376,11.400,32.52,0.11,0.34,0.8,-747.0,5.166,91261.265,873.842,5.168,91261.203,873.849,-10115.100,0.0,1.999,-72.247,4.105,0.260
27940,2,27940,40,0.390,0.482,0.421,41.344,11.832,31.932,0.10,0.35,0.10,-747.0,0.380,0.495,0.427,41.40,12.14,31.803,0.11,0.36,0.10,-747.0,5.167,91260.835,873.902,5.173,91261.343,873.837,-10132.38,0.1,1.943,-73.342,4.105,0.258
27976,2,27976,36,0.389,0.518,0.427,41.64,11.940,31.888,0.10,0.35,0.9,-747.0,0.401,0.588,0.427,40.470,12.160,31.964,0.8,0.35,0.6,-747.0,5.167,91261.265,873.842,5.168,91263.460,873.646,-10147.333,0.1,2.63,-70.977,4.105,0.262
28013,2,28013,37,0.404,0.503,0.404,41.90,11.821,31.926,0.11,0.35,0.8,-747.0,0.401,0.495,0.355,41.245,11.677,31.920,0.12,0.33,0.5,-747.0,5.170,91261.953,873.782,5.173,91266.906,873.742,-10162.734,0.1,2.63,-71.37,4.105,0.248
28053,2,28053,40,0.413,0.506,0.409,41.26,11.844,31.873,0.10,0.35,0.7,-747.0,0.459,0.466,0.434,40.996,11.970,31.628,0.11,0.38,0.7,-747.0,5.171,91262.851,873.823,5.173,91261.343,874.42,-10179.11,0.1,1.960,-73.64,4.105,0.250
28089,2,28089,36,0.409,0.512,0.410,40.988,11.935,31.926,0.9,0.35,0.7,-747.0,0.401,0.516,0.406,41.186,11.853,32.315,0.6,0.36,0.7,-747.0,5.171,91262.640,873.821,5.168,91260.148,873.837,-10193.764,0.0,2.2,-72.220,4.105,0.251
28128,2,28128,39,0.407,0.524,0.404,41.34,11.853,32.87,0.10,0.36,0.7,-747.0,0.373,0.552,0.399,41.274,11.604,32.607,0.14,0.39,0.9,-747.0,5.170,91261.500,873.840,5.168,91255.640,873.934,-10209.663,0.0,1.981,-72.630,4.105,0.248
28165,2,28165,37,0.403,0.501,0.393,41.292,11.783,32.90,0.11,0.36,0.7,-747.0,0.380,0.473,0.370,41.756,11.809,31.978,0.13,0.36,0.9,-747.0,5.170,91261.289,874.42,5.168,91262.398,874.654,-10224.426,0.5,1.832,-75.583,4.105,0.241
28204,2,28204,39,0.401,0.501,0.396,41.417,11.832,32.148,0.10,0.37,0.8,-747.0,0.394,0.495,0.370,41.873,11.926,32.212,0.9,0.37,0.8,-747.0,5.168,91259.273,874.162,5.164,91256.835,874.342,-10239.821,0.3,1.892,-74.151,4.105,0.242
28241,2,28241,37,0.387,0.525,0.400,41.446,11.832,32.312,0.10,0.37,0.8,-747.0,0.387,0.588,0.456,41.142,11.970,32.446,0.11,0.37,0.8,-747.0,5.166,91259.945,874.59,5.164,91264.656,873.525,-10254.558,0.2,2.115,-69.770,4.105,0.245
28280,2,28280,39,0.383,0.531,0.409,41.531,11.786,32.323,0.12,0.37,0.9,-747.0,0.380,0.545,0.449,41.610,11.619,32.373,0.12,0.38,0.9,-747.0,5.165,91259.62,873.936,5.159,91255.773,873.225,-10270.344,0.3,2.139,-69.433,4.105,0.250
28328,2,28328,48,0.386,0.515,0.409,41.560,11.844,32.274,0.11,0.37,0.9,-747.0,0.387,0.473,0.399,41.420,11.897,32.358,0.10,0.36,0.9,-747.0,5.163,91259.781,873.953,5.159,91259.218,874.17,-10289.980,0.0,1.983,-72.469,4.105,0.250
28365,2,28365,37,0.384,0.525,0.409,41.417,11.721,32.265,0.11,0.37,0.8,-747.0,0.373,0.524,0.370,41.40,11.195,31.935,0.11,0.35,0.7,-747.0,5.158,91258.484,873.746,5.145,91255.906,873.622,-10305.116,0.5,2.260,-67.403,4.105,0.250
28405,2,28405,40,0.376,0.526,0.407,41.385,11.698,32.259,0.11,0.36,0.7,-747.0,0.351,0.502,0.363,41.712,11.809,32.183,0.12,0.31,0.4,-747.0,5.155,91258.953,873.600,5.150,91259.218,873.609,-10321.450,0.3,2.171,-69.161,4.105,0.250
28441,2,28441,36,0.377,0.531,0.399,41.400,11.625,32.224,0.11,0.35,0.7,-747.0,0.394,0.610,0.413,41.216,11.604,32.271,0.11,0.34,0.7,-747.0,5.152,91258.562,873.701,5.150,91262.671,874.30,-10335.970,0.2,1.908,-74.278,4.112,0.244
28480,2,28480,39,0.376,0.534,0.406,41.444,11.701,32.128,0.11,0.34,0.7,-747.0,0.373,0.559,0.485,41.829,11.999,31.891,0.12,0.32,0.11,-747.0,5.152,91258.796,873.720,5.154,91256.968,873.321,-10351.672,0.0,1.981,-72.746,4.105,0.249
28517,2,28517,37,0.370,0.538,0.414,41.388,11.648,32.139,0.11,0.34,0.7,-747.0,0.358,0.495,0.442,41.142,11.634,32.417,0.11,0.35,0.9,-747.0,5.151,91258.828,873.701,5.154,91259.351,873.922,-10366.862,0.0,2.19,-71.994,4.105,0.254
28556,2,28556,39,0.376,0.541,0.430,41.426,11.829,32.163,0.11,0.34,0.8,-747.0,0.401,0.538,0.449,41.230,12.101,32.52,0.10,0.38,0.7,-747.0,5.152,91259.945,873.739,5.150,91261.476,873.814,-10383.348,0.0,1.963,-73.97,4.105,0.264
28594,2,28594,38,0.384,0.536,0.459,41.341,11.797,32.189,0.10,0.36,0.9,-747.0,0.394,0.480,0.506,41.289,11.648,32.315,0.8,0.38,0.10,-747.0,5.152,91260.390,873.943,5.150,91261.476,874.630,-10400.257,0.5,1.830,-75.714,4.105,0.281
28630,2,28630,36,0.377,0.511,0.460,41.455,11.879,32.201,0.11,0.36,0.9,-747.0,0.358,0.480,0.420,41.786,12.14,32.329,0.14,0.36,0.9,-747.0,5.153,91260.148,873.859,5.159,91261.476,873.609,-10416.819,0.2,2.91,-70.413,4.105,0.282
28861,2,28861,231,0.393,0.502,0.456,41.382,11.856,32.277,0.11,0.36,0.8,-747.0,0.452,0.516,0.463,41.464,11.882,32.271,0.11,0.35,0.3,-747.0,5.152,91260.648,873.958,5.145,91259.492,873.813,-10522.757,0.0,1.910,-73.972,4.112,0.279
30283,2,30283,1422,0.384,0.488,0.447,41.414,11.867,32.256,0.11,0.37,0.8,-747.0,0.315,0.423,0.399,41.303,11.692,32.315,0.13,0.38,0.12,-747.0,5.134,91261.0,873.885,5.66,91261.85,873.561,-11165.713,0.0,2.77,-70.653,4.112,0.274
30340,2,30340,57,0.361,0.480,0.449,41.368,11.780,32.408,0.11,0.36,0.8,-747.0,0.287,0.502,0.456,40.996,11.663,32.812,0.10,0.36,0.6,-747.0,5.111,91262.406,873.842,5.34,91268.507,873.597,-11191.282,0.0,2.45,-71.321,4.105,0.275
30376,2,30376,36,0.361,0.489,0.437,41.321,11.786,32.437,0.12,0.36,0.8,-747.0,0.394,0.524,0.449,41.55,11.677,32.461,0.13,0.38,0.8,-747.0,5.92,91262.859,873.681,5.57,91263.734,873.825,-11207.249,0.4,2.192,-68.682,4.105,0.268
30416,2,30416,40,0.347,0.503,0.429,41.251,11.762,32.394,0.11,0.37,0.7,-747.0,0.287,0.552,0.377,41.435,11.897,32.110,0.10,0.38,0.6,-747.0,5.77,91263.265,873.686,5.85,91263.468,873.633,-11224.588,0.0,1.995,-72.464,4.112,0.263
30452,2,30452,36,0.330,0.499,0.419,41.248,11.759,32.414,0.11,0.36,0.8,-747.0,0.366,0.495,0.413,41.449,11.867,32.373,0.12,0.32,0.9,-747.0,5.68,91264.242,873.674,5.99,91264.398,873.753,-11239.858,0.0,2.11,-72.137,4.105,0.257
30491,2,30491,39,0.348,0.539,0.407,41.178,11.707,32.347,0.11,0.35,0.7,-747.0,0.409,0.624,0.341,40.952,11.429,31.978,0.8,0.32,0.5,-747.0,5.77,91263.765,873.676,5.113,91258.695,873.573,-11255.980,0.0,1.997,-72.427,4.105,0.250
30528,2,30528,37,0.354,0.535,0.407,41.102,11.736,32.356,0.12,0.36,0.7,-747.0,0.315,0.480,0.456,40.616,11.809,32.855,0.18,0.40,0.6,-747.0,5.94,91264.234,873.693,5.117,91270.890,873.681,-11271.63,0.0,1.983,-72.699,4.105,0.250
30565,2,30565,37,0.360,0.531,0.420,41.84,11.774,32.446,0.11,0.36,0.7,-747.0,0.423,0.502,0.513,40.967,11.867,32.914,0.8,0.40,0.9,-747.0,5.108,91264.320,873.727,5.127,91264.132,873.993,-11286.385,0.0,1.967,-73.3,4.105,0.257
30604,2,30604,39,0.384,0.521,0.432,41.23,11.745,32.601,0.12,0.37,0.7,-747.0,0.409,0.502,0.434,41.128,11.750,32.885,0.13,0.39,0.8,-747.0,5.116,91263.992,873.758,5.127,91261.875,873.789,-11303.11,0.0,1.969,-72.928,4.112,0.264
30641,2,30641,37,0.379,0.515,0.446,40.783,11.692,32.715,0.12,0.37,0.7,-747.0,0.337,0.466,0.485,40.251,11.604,32.943,0.12,0.37,0.7,-747.0,5.122,91262.796,873.808,5.127,91258.429,874.5,-11319.262,0.1,1.952,-73.240,4.105,0.273
30680,2,30680,39,0.367,0.478,0.462,40.625,11.745,32.920,0.12,0.38,0.7,-747.0,0.351,0.437,0.420,40.163,11.692,33.2,0.7,0.36,0.4,-747.0,5.126,91262.750,873.772,5.131,91258.429,873.393,-11336.980,0.0,2.37,-71.555,4.105,0.283
30717,2,30717,37,0.361,0.486,0.459,40.672,11.745,32.923,0.11,0.37,0.6,-747.0,0.287,0.524,0.442,40.850,11.809,32.870,0.15,0.35,0.3,-747.0,5.129,91261.132,873.655,5.136,91262.804,873.93,-11354.28,0.3,2.133,-69.818,4.105,0.281
30756,2,30756,39,0.330,0.462,0.470,40.605,11.674,32.812,0.11,0.37,0.6,-747.0,0.265,0.380,0.571,40.631,11.517,32.358,0.10,0.40,0.6,-747.0,5.131,91261.140,873.513,5.136,91264.132,873.285,-11372.166,0.3,2.164,-69.366,4.105,0.288
30793,2,30793,37,0.330,0.449,0.465,40.561,11.596,32.738,0.11,0.37,0.6,-747.0,0.409,0.437,0.406,40.909,11.356,32.519,0.11,0.38,0.10,-747.0,5.133,91261.796,873.472,5.136,91265.187,873.584,-11389.479,0.1,2.42,-71.753,4.112,0.285
30835,2,30835,42,0.338,0.459,0.453,40.719,11.672,32.551,0.11,0.38,0.6,-747.0,0.380,0.516,0.427,41.40,11.984,32.8,0.12,0.39,0.6,-747.0,5.135,91261.828,873.491,5.136,91258.562,874.102,-11408.771,0.0,1.981,-72.967,4.105,0.278
30874,2,30874,39,0.341,0.495,0.472,40.803,11.791,32.420,0.12,0.38,0.7,-747.0,0.366,0.617,0.513,40.587,12.291,32.344,0.11,0.36,0.11,-747.0,5.134,91262.515,873.650,5.127,91261.875,874.186,-11426.825,0.4,1.863,-75.286,4.105,0.289
30910,2,30910,36,0.371,0.482,0.450,40.803,11.838,32.347,0.11,0.38,0.8,-747.0,0.437,0.459,0.334,40.850,12.43,32.505,0.13,0.35,0.7,-747.0,5.130,91262.328,873.667,5.117,91261.875,873.177,-11443.438,0.0,1.983,-72.740,4.112,0.276
30950,2,30950,40,0.396,0.469,0.430,40.914,11.999,32.326,0.10,0.38,0.8,-747.0,0.387,0.315,0.470,41.186,12.320,32.256,0.6,0.41,0.9,-747.0,5.128,91262.328,873.828,5.127,91264.132,874.90,-11461.65,0.4,1.861,-75.141,4.112,0.264
30986,2,30986,36,0.412,0.486,0.393,40.885,12.122,32.300,0.10,0.38,0.8,-747.0,0.488,0.524,0.219,40.762,11.970,32.388,0.11,0.38,0.10,-747.0,5.126,91261.453,873.909,5.122,91260.812,873.993,-11475.895,0.2,1.924,-73.719,4.105,0.241
31025,2,31025,39,0.348,0.450,0.417,40.824,12.22,32.402,0.10,0.37,0.11,-747.0,0.64,0.337,0.549,40.733,11.487,32.519,0.9,0.35,0.18,-747.0,5.121,91261.664,873.845,5.113,91259.625,873.777,-11491.709,0.1,2.69,-70.850,4.105,0.256
31062,2,31062,37,0.343,0.446,0.380,40.906,11.891,32.557,0.9,0.37,0.10,-747.0,0.337,0.595,0.327,40.996,11.634,33.118,0.6,0.35,0.9,-747.0,5.120,91261.687,873.804,5.122,91262.7,873.981,-11506.473,0.1,2.42,-71.416,4.105,0.233
31101,2,31101,39,0.341,0.466,0.419,40.827,11.774,32.601,0.8,0.37,0.11,-747.0,0.430,0.559,0.528,40.456,11.458,32.724,0.10,0.34,0.11,-747.0,5.120,91261.476,873.861,5.117,91260.812,873.465,-11522.63,0.1,1.945,-73.324,4.112,0.257
31138,2,31138,37,0.340,0.503,0.397,40.716,11.628,32.654,0.9,0.36,0.11,-747.0,0.380,0.502,0.363,40.631,11.590,32.519,0.10,0.37,0.8,-747.0,5.118,91259.937,873.738,5.117,91256.445,873.476,-11537.172,0.3,2.139,-69.607,4.105,0.243
31175,2,31175,37,0.325,0.506,0.452,40.806,11.543,32.677,0.9,0.36,0.11,-747.0,0.416,0.538,0.492,41.216,11.546,32.505,0.8,0.38,0.8,-747.0,5.117,91259.515,873.736,5.117,91258.695,873.981,-11552.893,0.0,2.2,-72.287,4.112,0.277
31214,2,31214,39,0.394,0.549,0.411,40.917,11.537,32.703,0.9,0.36,0.9,-747.0,0.409,0.552,0.348,41.289,11.458,32.651,0.8,0.35,0.7,-747.0,5.119,91259.328,873.736,5.122,91258.695,873.777,-11569.743,0.0,2.0,-72.337,4.105,0.252
31251,2,31251,37,0.393,0.526,0.446,41.40,11.657,32.534,0.10,0.36,0.8,-747.0,0.330,0.480,0.499,41.610,12.233,32.271,0.11,0.36,0.7,-747.0,5.117,91258.882,873.654,5.113,91259.757,873.573,-11585.623,0.2,2.88,-70.666,4.105,0.273
31290,2,31290,39,0.394,0.519,0.417,41.163,11.701,32.510,0.10,0.36,0.7,-747.0,0.437,0.524,0.384,41.69,11.677,32.607,0.12,0.35,0.6,-747.0,5.116,91258.453,873.736,5.113,91258.695,873.873,-11602.472,0.2,1.924,-73.888,4.105,0.256
31328,2,31328,38,0.377,0.528,0.414,41.403,11.759,32.508,0.10,0.36,0.7,-747.0,0.294,0.545,0.348,41.829,11.882,32.505,0.10,0.35,0.8,-747.0,5.116,91259.570,873.856,5.117,91262.7,874.78,-11618.290,0.3,1.892,-74.441,4.105,0.254
31378,2,31378,50,0.361,0.518,0.419,41.414,11.745,32.528,0.11,0.35,0.8,-747.0,0.337,0.488,0.513,41.274,11.473,32.607,0.12,0.35,0.9,-747.0,5.115,91258.484,873.832,5.113,91253.257,873.861,-11639.138,0.0,2.24,-71.748,4.112,0.257
31414,2,31414,36,0.358,0.524,0.444,41.373,11.786,32.505,0.11,0.36,0.7,-747.0,0.394,0.581,0.477,41.84,11.663,32.534,0.10,0.38,0.6,-747.0,5.112,91259.171,873.789,5.103,91262.140,873.561,-11654.692,0.1,2.45,-71.383,4.112,0.272
31451,2,31451,37,0.370,0.518,0.427,41.294,11.689,32.531,0.11,0.36,0.7,-747.0,0.387,0.452,0.413,41.216,11.750,32.402,0.12,0.36,0.5,-747.0,5.113,91259.406,873.928,5.117,91260.945,874.269,-11670.837,0.3,1.877,-74.685,4.105,0.262
31491,2,31491,40,0.364,0.515,0.452,41.362,11.748,32.490,0.10,0.36,0.7,-747.0,0.409,0.509,0.506,41.406,11.970,32.402,0.9,0.38,0.9,-747.0,5.112,91260.765,873.907,5.108,91265.453,873.766,-11688.435,0.0,2.21,-71.722,4.112,0.277
31527,2,31527,36,0.377,0.511,0.475,41.394,11.838,32.411,0.10,0.37,0.7,-747.0,0.358,0.524,0.463,41.990,12.335,32.110,0.8,0.38,0.7,-747.0,5.111,91260.789,873.823,5.113,91262.140,873.657,-11705.125,0.2,2.91,-70.437,4.112,0.291
31566,2,31566,39,0.381,0.503,0.450,41.394,11.940,32.370,0.10,0.38,0.7,-747.0,0.358,0.452,0.391,41.274,11.984,32.402,0.13,0.39,0.10,-747.0,5.110,91262.773,873.864,5.108,91263.203,874.65,-11723.179,0.1,1.960,-73.1,4.112,0.276
31603,2,31603,37,0.377,0.513,0.460,41.382,12.87,32.262,0.10,0.38,0.7,-747.0,0.373,0.631,0.528,41.26,12.394,31.993,0.8,0.40,0.2,-747.0,5.111,91263.437,873.801,5.108,91265.453,873.248,-11740.41,0.1,2.66,-70.943,4.105,0.282
31643,2,31643,40,0.357,0.528,0.475,41.397,12.189,32.253,0.10,0.39,0.7,-747.0,0.287,0.524,0.485,41.289,12.262,32.358,0.15,0.40,0.7,-747.0,5.108,91263.914,873.823,5.103,91263.335,874.378,-11758.759,0.0,1.978,-72.674,4.105,0.291
31679,2,31679,36,0.334,0.508,0.457,41.438,12.218,32.148,0.11,0.38,0.6,-747.0,0.294,0.409,0.420,41.610,12.116,31.876,0.12,0.35,0.4,-747.0,5.108,91261.898,873.784,5.108,91255.382,873.573,-11775.553,0.1,2.40,-71.482,4.112,0.280
31718,2,31718,39,0.347,0.509,0.443,41.309,12.171,32.177,0.12,0.37,0.6,-747.0,0.423,0.531,0.391,41.347,12.101,32.256,0.11,0.34,0.8,-747.0,5.108,91261.234,873.784,5.113,91258.828,873.657,-11793.131,0.0,2.0,-72.283,4.112,0.272
31755,2,31755,37,0.361,0.516,0.442,41.227,12.174,32.230,0.12,0.37,0.5,-747.0,0.430,0.488,0.384,40.865,11.999,32.665,0.16,0.35,0.6,-747.0,5.107,91260.789,873.787,5.103,91260.945,874.78,-11809.515,0.0,1.997,-72.330,4.112,0.271
31792,2,31792,37,0.360,0.483,0.420,41.403,12.60,32.420,0.13,0.36,0.6,-747.0,0.366,0.466,0.420,41.902,11.824,32.943,0.8,0.35,0.7,-747.0,5.107,91259.890,873.931,5.108,91260.945,873.969,-11825.474,0.3,1.873,-74.763,4.112,0.257
31831,2,31831,39,0.393,0.480,0.406,41.370,11.929,32.537,0.11,0.36,0.6,-747.0,0.452,0.509,0.413,41.128,11.604,32.943,0.9,0.38,0.6,-747.0,5.108,91259.414,873.969,5.108,91260.945,874.570,-11841.596,0.0,1.963,-72.851,4.105,0.249
31879,2,31879,48,0.412,0.482,0.417,41.166,11.821,32.680,0.11,0.35,0.7,-747.0,0.387,0.416,0.477,40.587,11.575,32.592,0.11,0.34,0.8,-747.0,5.109,91258.984,873.965,5.113,91253.257,873.549,-11861.370,0.0,2.4,-72.8,4.112,0.256
31919,2,31919,40,0.403,0.489,0.422,41.96,11.704,32.776,0.11,0.37,0.8,-747.0,0.380,0.567,0.413,40.996,11.517,32.738,0.8,0.43,0.13,-747.0,5.107,91259.640,874.25,5.103,91262.140,873.958,-11878.164,0.1,1.943,-73.203,4.112,0.258
31955,2,31955,36,0.383,0.498,0.442,41.93,11.601,32.771,0.10,0.37,0.8,-747.0,0.330,0.531,0.485,40.850,11.487,32.636,0.12,0.36,0.5,-747.0,5.106,91259.429,873.900,5.99,91259.890,873.453,-11893.717,0.3,2.142,-69.387,4.112,0.271
31994,2,31994,39,0.384,0.496,0.434,41.5,11.520,32.718,0.10,0.36,0.8,-747.0,0.373,0.459,0.384,41.464,11.414,32.680,0.10,0.31,0.10,-747.0,5.106,91259.671,873.816,5.108,91262.140,873.549,-11910.819,0.2,2.91,-70.444,4.112,0.266
32031,2,32031,37,0.350,0.495,0.432,41.128,11.546,32.660,0.10,0.37,0.9,-747.0,0.279,0.502,0.399,41.742,11.736,32.651,0.8,0.43,0.7,-747.0,5.105,91258.796,873.712,5.103,91256.578,874.53,-11926.858,0.2,2.115,-70.99,4.112,0.264
32068,2,32068,37,0.351,0.506,0.429,41.338,11.619,32.759,0.10,0.38,0.8,-747.0,0.394,0.473,0.463,41.639,11.940,33.89,0.13,0.37,0.7,-747.0,5.105,91261.23,873.876,5.113,91264.398,874.365,-11942.791,0.4,1.859,-75.126,4.112,0.263
32107,2,32107,39,0.354,0.489,0.444,41.385,11.701,32.712,0.12,0.36,0.8,-747.0,0.394,0.480,0.492,41.230,11.926,32.505,0.14,0.33,0.9,-747.0,5.107,91260.835,873.794,5.113,91261.218,873.549,-11959.836,0.2,2.89,-70.517,4.105,0.272
32144,2,32144,37,0.357,0.488,0.446,40.713,11.736,32.680,0.12,0.37,0.8,-747.0,0.344,0.524,0.492,37.489,11.663,32.475,0.12,0.40,0.5,-747.0,5.106,91259.750,873.835,5.94,91254.453,873.657,-11976.327,0.1,1.960,-73.35,4.112,0.273
32183,2,32183,39,0.358,0.499,0.450,40.724,11.806,32.572,0.11,0.38,0.7,-747.0,0.380,0.516,0.406,41.522,11.765,32.139,0.9,0.38,0.8,-747.0,5.105,91258.648,873.897,5.103,91256.578,873.861,-11993.821,0.1,1.941,-73.376,4.112,0.276
32220,2,32220,37,0.373,0.499,0.457,40.695,11.835,32.581,0.11,0.36,0.7,-747.0,0.351,0.502,0.434,41.596,11.882,32.695,0.9,0.34,0.5,-747.0,5.103,91259.312,873.900,5.94,91259.890,874.65,-12010.630,0.0,1.997,-72.215,4.112,0.280
32259,2,32259,39,0.363,0.512,0.457,40.710,11.756,32.405,0.10,0.36,0.8,-747.0,0.344,0.538,0.463,41.712,11.546,32.212,0.8,0.37,0.12,-747.0,5.101,91260.203,873.739,5.99,91268.906,873.561,-12028.488,0.4,2.191,-68.638,4.105,0.280
32296,2,32296,37,0.363,0.529,0.443,40.689,11.689,32.350,0.10,0.37,0.7,-747.0,0.394,0.567,0.420,41.128,11.590,32.227,0.11,0.37,0.7,-747.0,5.100,91260.835,873.801,5.108,91264.398,873.861,-12045.165,0.1,1.941,-73.468,4.112,0.272
32337,2,32337,41,0.358,0.545,0.429,41.464,11.756,32.242,0.9,0.37,0.8,-747.0,0.323,0.602,0.420,41.362,11.999,31.935,0.10,0.41,0.6,-747.0,5.104,91261.23,873.883,5.117,91255.382,874.65,-12063.55,0.1,1.924,-73.735,4.105,0.263
32385,2,32385,48,0.374,0.536,0.440,41.376,11.832,32.247,0.10,0.37,0.7,-747.0,0.459,0.473,0.463,41.84,12.145,32.168,0.10,0.39,0.7,-747.0,5.106,91260.125,873.902,5.113,91252.70,873.958,-12083.931,0.0,1.981,-72.548,4.125,0.270
32421,2,32421,36,0.377,0.541,0.430,41.289,11.844,32.154,0.9,0.37,0.9,-747.0,0.366,0.524,0.384,41.157,11.940,32.227,0.9,0.34,0.11,-747.0,5.110,91261.484,873.842,5.113,91266.648,873.766,-12099.614,0.1,2.63,-70.959,4.112,0.264
32461,2,32461,40,0.393,0.526,0.427,41.207,11.961,32.166,0.10,0.37,0.7,-747.0,0.423,0.466,0.449,41.303,12.130,32.271,0.9,0.36,0.3,-747.0,5.112,91259.226,873.881,5.108,91257.632,873.753,-12116.781,0.0,1.962,-72.945,4.112,0.262
32497,2,32497,36,0.383,0.502,0.436,41.271,12.87,32.335,0.10,0.38,0.7,-747.0,0.344,0.445,0.463,41.449,12.218,33.75,0.13,0.41,0.5,-747.0,5.111,91258.742,873.780,5.103,91262.7,873.357,-12132.334,0.2,2.112,-70.90,4.112,0.267
32536,2,32536,39,0.386,0.483,0.453,41.189,12.107,32.364,0.10,0.37,0.7,-747.0,0.337,0.509,0.506,40.952,12.101,32.81,0.11,0.36,0.6,-747.0,5.109,91258.718,873.741,5.108,91255.250,873.873,-12149.688,0.0,2.40,-71.528,4.112,0.278
32573,2,32573,37,0.356,0.496,0.457,41.169,12.90,32.475,0.10,0.36,0.7,-747.0,0.308,0.538,0.485,40.982,12.57,32.724,0.10,0.34,0.11,-747.0,5.109,91259.625,873.806,5.113,91256.578,874.282,-12166.550,0.1,1.939,-73.509,4.125,0.280
32612,2,32612,39,0.368,0.501,0.443,41.230,12.180,32.589,0.10,0.37,0.7,-747.0,0.430,0.545,0.312,41.464,12.394,32.797,0.9,0.40,0.11,-747.0,5.110,91257.578,873.868,5.117,91256.445,874.78,-12184.128,0.1,1.941,-73.405,4.112,0.272
32649,2,32649,37,0.350,0.501,0.433,41.239,12.177,32.709,0.11,0.37,0.8,-747.0,0.330,0.466,0.399,41.347,12.116,32.870,0.13,0.35,0.6,-747.0,5.112,91258.210,873.974,5.117,91260.812,874.282,-12200.353,0.2,1.904,-74.74,4.112,0.265
32686,2,32686,37,0.353,0.498,0.430,41.110,12.174,32.674,0.11,0.36,0.7,-747.0,0.358,0.430,0.449,40.806,12.204,32.899,0.11,0.36,0.0,-747.0,5.114,91256.859,874.17,5.117,91255.250,873.573,-12216.338,0.1,1.958,-72.902,4.112,0.264
32725,2,32725,39,0.350,0.496,0.413,41.66,12.268,32.771,0.11,0.36,0.8,-747.0,0.323,0.502,0.420,40.733,12.569,32.563,0.10,0.37,0.9,-747.0,5.116,91257.546,874.58,5.117,91258.695,874.78,-12232.796,0.1,1.960,-72.816,4.118,0.253
32762,2,32762,37,0.360,0.503,0.394,41.40,12.288,32.785,0.11,0.37,0.6,-747.0,0.358,0.574,0.391,40.850,12.160,32.797,0.11,0.38,0.3,-747.0,5.117,91257.734,874.61,5.117,91257.500,874.294,-12247.747,0.0,1.997,-72.63,4.112,0.242
32801,2,32801,39,0.357,0.493,0.411,40.815,12.221,32.771,0.11,0.35,0.6,-747.0,0.416,0.495,0.399,40.339,12.57,32.724,0.11,0.32,0.9,-747.0,5.117,91257.500,874.102,5.117,91255.250,874.282,-12263.477,0.1,1.960,-72.772,4.112,0.252
32838,2,32838,37,0.371,0.482,0.420,40.760,12.201,32.724,0.10,0.36,0.6,-747.0,0.401,0.409,0.442,41.69,12.14,32.636,0.6,0.40,0.10,-747.0,5.118,91257.710,873.900,5.122,91261.875,873.273,-12278.878,0.5,2.252,-67.373,4.112,0.257
32882,2,32882,44,0.384,0.495,0.432,40.903,12.168,32.785,0.10,0.36,0.8,-747.0,0.423,0.495,0.506,41.522,12.43,33.206,0.13,0.34,0.11,-747.0,5.118,91259.62,873.859,5.117,91262.7,873.369,-12297.636,0.0,2.42,-71.365,4.112,0.264
32918,2,32918,36,0.390,0.492,0.429,41.14,12.95,32.832,0.10,0.36,0.9,-747.0,0.351,0.488,0.406,41.289,12.204,32.797,0.11,0.37,0.10,-747.0,5.117,91258.164,873.921,5.113,91254.187,874.390,-12313.138,0.1,1.941,-73.356,4.125,0.263
32960,2,32960,42,0.409,0.475,0.452,41.66,11.987,32.852,0.11,0.36,0.9,-747.0,0.452,0.488,0.506,41.113,11.619,32.899,0.13,0.36,0.6,-747.0,5.117,91259.304,873.777,5.117,91263.203,873.573,-12331.646,0.3,2.168,-69.33,4.112,0.277
32996,2,32996,36,0.389,0.483,0.469,41.300,11.993,32.829,0.10,0.37,0.10,-747.0,0.315,0.538,0.485,41.508,12.87,32.607,0.9,0.36,0.11,-747.0,5.117,91259.992,873.695,5.117,91258.695,873.873,-12348.234,0.2,2.88,-70.622,4.112,0.287
33033,2,33033,37,0.379,0.496,0.453,41.365,11.900,32.814,0.12,0.36,0.9,-747.0,0.351,0.473,0.363,41.391,11.546,32.563,0.14,0.37,0.5,-747.0,5.116,91261.140,873.856,5.117,91267.578,874.78,-12365.309,0.4,1.861,-75.111,4.112,0.278
33073,2,33073,40,0.379,0.502,0.434,41.350,11.926,32.753,0.12,0.37,0.8,-747.0,0.423,0.524,0.413,41.449,12.174,32.899,0.11,0.39,0.6,-747.0,5.116,91260.234,873.938,5.117,91257.500,873.777,-12383.80,0.2,1.924,-73.685,4.112,0.266
33109,2,33109,36,0.391,0.502,0.444,41.432,11.841,32.741,0.12,0.37,0.7,-747.0,0.416,0.488,0.456,41.698,11.780,32.738,0.12,0.36,0.8,-747.0,5.116,91262.0,873.816,5.113,91263.70,873.777,-12398.917,0.3,2.139,-69.532,4.112,0.272
33148,2,33148,39,0.386,0.522,0.446,41.423,11.891,32.616,0.10,0.38,0.7,-747.0,0.423,0.588,0.513,41.69,11.867,32.271,0.5,0.42,0.3,-747.0,5.117,91261.976,873.775,5.122,91263.70,873.369,-12416.299,0.1,2.42,-71.446,4.112,0.273
33185,2,33185,37,0.399,0.501,0.436,41.391,11.826,32.572,0.11,0.39,0.7,-747.0,0.380,0.430,0.434,41.347,11.765,32.388,0.14,0.40,0.10,-747.0,5.118,91261.734,873.837,5.122,91257.500,874.186,-12432.630,0.1,1.941,-73.438,4.112,0.267
33224,2,33224,39,0.400,0.509,0.456,41.514,11.940,32.657,0.11,0.38,0.8,-747.0,0.358,0.516,0.463,42.5,12.116,32.987,0.11,0.35,0.11,-747.0,5.117,91260.414,873.816,5.113,91260.945,873.969,-12450.41,0.0,2.22,-71.812,4.105,0.279
