millis(),Current_state,Calculated_flight_time,Time_since_last_log,IMU_accel_X,IMU_accel_Y,IMU_accel_Z,IMU_mag_X,IMU_mag_Y,IMU_mag_Z,IMU_gyro_X,IMU_gyro_Y,IMU_gyro_Z,IMU_temp,Raw_IMU_accel_X,Raw_IMU_accel_Y,Raw_IMU_accel_Z,Raw_IMU_mag_X,Raw_IMU_mag_Y,Raw_IMU_mag_Z,Raw_IMU_gyro_X,Raw_IMU_gyro_Y,Raw_IMU_gyro_Z,Raw_IMU_temp,BARO_temp,BARO_press,BARO_alt,Raw_BARO_temp,Raw_BARO_press,Raw_BARO_alt,Velocity_lastUpdate,Velocity_lastZAccel,Velocity_lastAlt,Velocity_inte,Velocity_diff,Velocity_est,Est_apogee,Target_air_brake_angle,Air_brake_angle,Battery_voltage,Z_accel_times_burnoutMass
2,4705,4705,0.116,0.255,0.421,68.59,-26.123,34.326,0.22,0.20,0.7,-587.0,0.114,0.244,0.406,67.977,-26.337,34.419,0.25,0.20,0.8,-587.0,11.947,91170.562,882.158,11.954,91106.429,887.391,4705,0.421,887.391,0.0,0.0,0.0,0.0,0.0,0.0,4.8,0.262
4757,2,4757,52,0.152,0.219,0.403,68.120,-26.235,34.372,0.21,0.20,0.6,-587.0,0.193,0.193,0.399,68.225,-26.527,34.361,0.17,0.22,0.2,-587.0,11.956,91154.734,883.676,11.982,91102.812,888.337,4757,0.403,888.337,-21458.710,18.189,1.647,0.0,0.0,0.0,4.2,0.250
4800,2,4800,43,0.160,0.236,0.397,68.47,-26.381,34.390,0.22,0.22,0.6,-587.0,0.200,0.265,0.442,67.889,-26.556,34.390,0.22,0.23,0.2,-587.0,11.966,91137.492,884.972,12.0,91103.445,887.430,4800,0.397,887.430,-38678.667,-21.79,3.720,0.0,0.0,0.0,4.2,0.247
4836,2,4836,36,0.155,0.239,0.436,68.61,-26.360,34.343,0.21,0.23,0.5,-587.0,0.208,0.229,0.492,68.64,-26.74,34.492,0.20,0.24,0.1,-587.0,11.982,91118.710,884.987,12.23,91095.726,880.823,4836,0.436,880.823,-53689.750,-183.520,0.778,0.0,0.0,0.0,4.2,0.271
4879,2,4879,43,0.175,0.236,0.421,68.18,-26.313,34.437,0.21,0.23,0.4,-580.599,0.157,0.251,0.370,67.933,-26.74,34.522,0.21,0.24,0.7,-555.0,11.994,91119.632,884.988,12.9,91189.734,880.959,4879,0.421,880.959,-72144.398,3.145,1.913,0.0,0.0,0.0,4.2,0.262
4915,2,4915,36,0.175,0.235,0.419,67.945,-26.308,34.408,0.21,0.23,0.4,-580.599,0.114,0.236,0.391,67.611,-26.308,34.273,0.23,0.22,0.10,-587.0,12.7,91134.664,883.518,12.19,91181.593,880.40,4915,0.419,880.40,-87284.695,-25.510,5.261,0.0,0.0,0.0,4.15,0.260
4958,2,4958,43,0.173,0.228,0.421,67.933,-26.284,34.375,0.21,0.23,0.4,-580.599,0.186,0.157,0.413,68.167,-26.410,34.200,0.19,0.24,0.3,-587.0,12.15,91151.984,882.83,12.23,91189.453,881.165,4958,0.421,881.165,-105368.945,26.147,1.560,0.0,0.0,0.0,4.15,0.262
4994,2,4994,36,0.166,0.228,0.424,68.35,-26.258,34.405,0.20,0.23,0.5,-580.599,0.165,0.265,0.456,68.401,-26.425,34.536,0.17,0.22,0.2,-587.0,12.20,91168.765,880.668,12.23,91187.328,880.355,4994,0.424,880.355,-120612.617,-22.499,4.76,0.0,0.0,0.0,4.15,0.264
5037,2,5037,43,0.149,0.223,0.341,68.158,-26.293,34.434,0.18,0.30,0.6,-580.599,0.122,0.208,0.75,68.678,-26.249,34.638,0.10,0.59,0.7,-587.0,12.22,91186.359,880.616,12.37,91183.718,880.560,5037,0.341,880.560,-137091.765,4.776,1.874,0.0,0.0,0.0,4.2,0.212
5073,2,5073,36,0.193,0.195,0.344,68.129,-26.372,34.352,0.12,0.39,0.6,-587.0,0.380,0.107,0.384,67.787,-26.468,34.112,0.8,0.69,0.7,-587.0,12.27,91185.406,880.495,12.32,91184.921,880.355,5073,0.344,880.355,-149441.93,-5.705,2.206,0.0,0.0,0.0,4.21,0.214
5116,2,5116,43,0.96,0.235,0.351,68.316,-26.313,34.484,0.6,0.45,0.3,-587.0,0.373,0.437,0.427,68.547,-26.15,34.931,0.8,0.54,0.0,-587.0,12.31,91186.726,880.599,12.37,91188.250,880.560,5116,0.351,880.560,-164407.750,4.776,1.874,0.0,0.0,0.0,4.2,0.218
5152,2,5152,36,0.58,0.325,0.340,68.301,-26.246,34.589,0.13,0.41,0.4,-587.0,0.0,0.610,0.355,68.94,-26.74,34.726,0.56,0.3,0.8,-587.0,12.32,91186.710,880.357,12.28,91189.312,879.957,5152,0.340,879.957,-176860.437,-16.749,3.9,0.0,0.0,0.0,4.2,0.211
5189,2,5189,37,0.390,0.363,0.330,68.301,-26.85,34.606,0.22,0.30,0.4,-587.0,-1.823,0.452,0.406,68.401,-25.621,34.624,0.62,0.36,0.0,-587.0,12.33,91185.984,880.338,12.32,91183.718,880.258,5189,0.330,880.258,-189260.625,8.140,1.803,0.0,0.0,0.0,4.21,0.205
5232,2,5232,43,0.452,0.206,0.419,68.374,-26.123,34.478,0.28,0.24,0.4,-587.0,0.430,0.574,0.521,69.44,-26.439,33.995,0.41,0.33,0.6,-587.0,12.33,91186.890,880.215,12.37,91188.250,879.944,5232,0.419,879.944,-205369.359,-7.310,2.280,0.0,0.0,0.0,4.15,0.260
5515,2,5515,283,0.394,0.169,0.397,68.453,-26.199,34.451,0.27,0.17,0.3,-587.0,0.93,0.78,0.276,68.181,-26.848,33.981,0.11,0.34,0.4,-587.0,12.32,91186.984,880.165,12.28,91185.406,880.106,5515,0.397,880.106,-320935.343,0.570,1.983,0.0,0.0,0.0,3.996,0.247
5664,2,5664,149,0.410,0.156,0.325,68.222,-26.331,34.296,0.16,0.18,0.17,-580.599,0.294,0.373,0.68,67.392,-26.673,34.156,0.63,0.56,0.69,-555.0,12.10,91186.687,880.93,11.927,91186.750,880.202,5664,0.325,880.202,-374828.718,0.646,1.980,0.0,0.0,0.0,4.2,0.202
5700,2,5700,36,0.453,0.242,0.443,68.26,-26.425,34.296,0.3,0.27,0.22,-574.200,0.215,-1.40,0.944,67.114,-26.541,34.726,0.47,0.50,0.31,-555.0,11.991,91187.234,880.167,11.931,91192.62,880.324,5700,0.443,880.324,-388676.906,3.392,1.907,0.0,0.0,0.0,4.8,0.275
5743,2,5743,43,0.35,0.420,0.120,67.822,-26.559,34.364,0.11,0.39,0.25,-574.200,0.265,-1.342,1.208,67.377,-26.293,34.960,0.24,0.24,0.14,-587.0,11.974,91188.179,880.144,11.945,91188.453,880.144,5743,0.120,880.144,-400803.750,-4.190,2.143,0.0,0.0,0.0,4.8,0.74
5809,2,5809,66,0.104,0.476,0.506,67.638,-26.658,34.522,0.10,0.15,0.35,-574.200,0.775,0.294,-2.452,68.123,-26.936,34.785,0.152,0.88,0.56,-587.0,11.957,91188.437,880.266,11.954,91189.515,880.555,5809,0.506,880.555,-421501.656,6.222,1.842,0.0,0.0,0.0,4.21,0.314
5852,2,5852,43,0.300,0.202,0.467,67.670,-26.699,34.636,0.10,0.10,0.23,-567.799,-1.69,1.450,0.83,68.342,-27.53,34.551,0.13,0.9,0.53,-555.0,11.941,91188.539,880.254,11.950,91185.906,880.46,5852,0.467,880.46,-442456.562,-11.818,2.549,0.0,0.0,0.0,4.15,0.290
5889,2,5889,37,0.849,0.136,0.625,67.760,-26.828,34.752,0.4,0.16,0.33,-567.799,-2.455,0.43,0.858,67.845,-27.316,34.741,0.94,0.76,0.217,-555.0,11.949,91190.148,880.248,11.963,91194.835,880.170,5889,0.625,880.170,-462692.31,3.330,1.909,0.0,0.0,0.0,4.21,0.388
5931,2,5931,42,-1.6,0.358,0.584,67.851,-26.971,34.820,0.17,0.4,0.66,-567.799,0.997,-2.153,0.736,67.567,-27.258,35.62,0.20,0.111,0.132,-555.0,11.955,91189.796,880.197,11.963,91190.296,880.72,5931,0.584,880.72,-488104.156,-2.322,2.74,0.0,0.0,0.0,4.21,0.363
5967,2,5967,36,0.956,0.124,0.862,67.907,-27.114,34.831,0.35,0.36,0.129,-561.400,0.516,0.172,0.183,67.655,-27.9,35.19,0.114,0.229,0.301,-555.0,11.962,91189.921,880.84,11.977,91189.93,879.578,5967,0.862,879.578,-514150.0,-13.734,2.700,0.0,0.0,0.0,4.21,0.536
6010,2,6010,43,-1.72,0.188,0.407,67.737,-27.214,34.919,0.1,0.47,0.133,-555.0,-1.356,0.21,0.176,67.275,-27.433,35.223,0.19,0.37,0.36,-555.0,11.969,91190.62,880.12,11.991,91190.156,880.195,6010,0.407,880.195,-541463.625,14.351,1.699,0.0,0.0,0.0,4.28,0.253
6046,2,6046,36,0.831,0.703,0.231,67.515,-27.287,34.943,0.6,0.66,0.119,-555.0,0.136,-1.127,0.799,67.231,-27.418,34.668,0.10,0.105,0.19,-555.0,11.975,91192.31,880.42,11.982,91195.757,880.195,6046,0.231,880.195,-552960.125,0.0,2.0,0.0,0.0,0.0,4.21,0.143
6089,2,6089,43,0.443,0.720,0.104,67.319,-27.313,34.986,0.22,0.87,0.64,-555.0,0.516,0.129,0.226,66.866,-27.448,34.960,0.14,0.27,0.54,-555.0,11.981,91191.546,880.88,11.991,91192.429,880.400,6089,0.104,880.400,-560179.62,4.776,1.874,0.0,0.0,0.0,4.21,0.65
6125,2,6125,36,0.990,0.437,0.209,67.214,-27.167,34.957,0.28,0.86,0.26,-555.0,-3.732,0.739,-1.260,67.41,-26.527,34.916,0.50,0.109,0.321,-555.0,11.986,91192.398,880.33,11.991,91194.554,879.796,6125,0.209,879.796,-565835.187,-16.793,3.15,0.0,0.0,0.0,4.21,0.130
6168,2,6168,43,-1.12,0.226,0.251,67.50,-27.62,34.960,0.53,0.67,0.101,-555.0,0.409,0.882,0.391,66.837,-26.483,35.33,0.240,0.132,0.74,-555.0,11.991,91193.250,880.238,12.0,91193.351,880.605,6168,0.251,880.605,-575739.562,18.834,1.638,0.0,0.0,0.0,4.15,0.156
6204,2,6204,36,0.571,0.71,0.292,66.924,-26.816,34.972,0.66,0.92,0.109,-555.0,0.847,1.471,0.384,66.647,-26.205,35.282,0.44,0.89,0.77,-555.0,11.992,91193.437,880.199,11.996,91191.78,880.1,6204,0.292,880.1,-585530.500,-16.793,3.15,0.0,0.0,0.0,4.8,0.181
6350,2,6350,146,0.745,0.409,0.683,67.114,-26.629,34.858,0.76,0.52,0.106,-555.0,0.732,0.559,-1.152,68.181,-26.483,34.98,0.59,0.98,0.7,-555.0,11.996,91192.7,880.228,12.0,91188.593,880.337,6350,0.683,880.337,-656784.625,2.299,1.935,0.0,0.0,0.0,4.15,0.424
6603,2,6603,253,0.671,0.483,0.713,67.360,-26.477,34.855,0.68,0.60,0.98,-555.0,0.150,0.244,0.377,68.94,-26.688,34.945,0.54,0.66,0.13,-555.0,11.986,91190.890,880.287,11.945,91186.890,880.696,6603,0.713,880.696,-833472.500,1.422,1.959,0.0,0.0,0.0,4.15,0.443
6647,2,6647,44,0.81,0.534,0.536,67.512,-26.544,34.779,0.66,0.39,0.36,-555.0,0.782,0.488,0.377,67.801,-26.863,34.536,0.40,0.4,0.8,-555.0,11.968,91189.93,880.390,11.899,91185.546,880.311,6647,0.536,880.311,-860979.125,-8.762,2.356,0.0,0.0,0.0,4.21,0.333
6684,2,6684,37,0.136,0.371,0.554,67.705,-26.577,34.627,0.22,0.15,0.22,-555.0,0.136,0.71,0.477,67.801,-26.644,34.273,0.21,0.13,0.5,-555.0,11.952,91189.265,880.334,11.922,91194.195,880.324,6684,0.554,880.324,-881161.500,0.356,1.989,0.0,0.0,0.0,4.21,0.344
6726,2,6726,42,0.335,0.10,0.581,67.901,-26.723,34.434,0.14,0.3,0.8,-555.0,0.150,0.337,0.521,67.626,-26.936,34.317,0.7,0.30,0.6,-555.0,11.940,91189.218,880.401,11.936,91190.859,880.337,6726,0.581,880.337,-905005.875,0.299,1.991,0.0,0.0,0.0,4.21,0.361
6762,2,6762,36,0.281,0.162,0.450,67.848,-26.723,34.492,0.10,0.25,0.7,-555.0,0.459,0.301,0.499,67.918,-26.483,34.390,0.38,0.13,0.5,-555.0,11.928,91188.484,880.502,11.936,91184.984,880.844,6762,0.450,880.844,-923583.250,14.87,1.702,0.0,0.0,0.0,4.21,0.280
6805,2,6805,43,0.274,0.231,0.476,67.898,-26.714,34.413,0.24,0.16,0.6,-555.0,0.114,0.100,0.506,68.342,-26.644,34.551,0.17,0.19,0.5,-555.0,11.929,91189.23,880.575,11.950,91189.515,881.62,6805,0.476,881.62,-943519.562,5.81,1.867,0.0,0.0,0.0,4.15,0.296
6841,2,6841,36,0.176,0.186,0.498,67.810,-26.693,34.451,0.19,0.20,0.5,-555.0,0.294,0.265,0.485,67.363,-26.761,34.726,0.13,0.25,0.6,-555.0,11.940,91182.453,881.909,11.959,91152.687,886.980,6841,0.498,886.980,-961063.250,164.376,1.168,0.0,0.0,0.0,4.15,0.309
6883,2,6883,42,0.244,0.999,0.50,67.842,-26.658,34.408,0.14,0.35,0.2,-555.0,0.200,6.1,1.761,67.962,-26.468,34.54,0.4,0.90,0.14,-555.0,11.953,91166.453,883.284,11.986,91114.148,887.198,6883,0.50,887.198,-972576.437,5.205,1.864,0.0,0.0,0.0,4.21,0.31
6947,2,6947,64,0.255,1.13,0.41,67.898,-26.673,34.413,0.16,0.33,0.1,-555.0,0.208,0.265,0.477,67.904,-27.9,34.346,0.16,0.19,0.2,-555.0,11.963,91151.101,884.574,11.986,91114.148,886.787,6947,0.41,886.787,-975510.750,-6.429,2.238,0.0,0.0,0.0,4.8,0.25
6991,2,6991,44,0.212,1.15,0.27,67.939,-26.641,34.469,0.13,0.35,0.1,-555.0,0.244,0.294,0.427,68.123,-26.322,34.668,0.23,0.22,0.6,-555.0,11.975,91136.687,885.845,11.996,91112.945,887.198,6991,0.27,887.198,-977022.687,9.352,1.780,0.0,0.0,0.0,4.2,0.16
7028,2,7028,37,0.248,1.22,0.4,67.784,-26.574,34.416,0.14,0.36,0.1,-555.0,0.294,0.64,0.391,67.567,-26.308,34.288,0.23,0.23,0.7,-555.0,11.986,91120.656,887.97,12.5,91109.328,887.321,7028,0.4,887.321,-977603.562,3.318,1.909,0.0,0.0,0.0,4.8,0.2
7069,2,7069,41,0.221,1.23,0.2,67.904,-26.503,34.349,0.15,0.35,0.1,-555.0,0.157,0.258,0.449,67.962,-26.410,34.390,0.18,0.21,0.7,-555.0,11.998,91112.593,887.187,12.14,91112.375,887.430,7069,0.2,887.430,-977629.125,2.658,1.926,0.0,0.0,0.0,4.21,0.1
7105,2,7105,36,0.225,0.234,0.436,67.869,-26.457,34.393,0.20,0.21,0.5,-555.0,0.222,0.287,0.434,67.787,-26.235,34.273,0.19,0.18,0.4,-555.0,12.7,91112.445,886.79,12.32,91113.437,881.659,7105,0.436,881.659,-985430.187,-160.307,0.737,0.0,0.0,0.0,4.15,0.271
7148,2,7148,43,0.222,0.239,0.423,67.801,-26.328,34.475,0.20,0.21,0.5,-555.0,0.193,0.294,0.413,67.567,-26.366,34.755,0.15,0.22,0.4,-555.0,12.10,91127.796,884.727,12.5,91190.937,880.28,7148,0.423,880.28,-1003915.750,-37.939,-6.236,0.0,0.0,0.0,4.8,0.263
7184,2,7184,36,0.192,0.235,0.416,67.728,-26.369,34.384,0.19,0.21,0.5,-555.0,0.93,0.272,0.391,67.757,-26.527,34.215,0.19,0.22,0.3,-555.0,12.14,91142.671,883.499,12.14,91187.328,881.55,7184,0.416,881.55,-1019030.250,28.537,1.538,0.0,0.0,0.0,4.2,0.258
7329,2,7329,145,0.182,0.255,0.433,67.854,-26.337,34.390,0.19,0.20,0.4,-555.0,0.244,0.165,0.477,68.196,-26.147,34.317,0.23,0.17,0.4,-555.0,12.16,91157.359,882.184,12.14,91182.718,880.747,7329,0.433,880.747,-1080636.625,-2.122,2.68,0.0,0.0,0.0,4.2,0.269
7365,2,7365,36,0.202,0.245,0.424,67.848,-26.337,34.437,0.19,0.20,0.4,-555.0,0.258,0.208,0.406,67.933,-26.410,34.624,0.18,0.19,0.5,-555.0,12.3,91171.882,880.891,11.950,91184.984,880.965,7365,0.424,880.965,-1096087.0,6.56,1.846,0.0,0.0,0.0,4.2,0.264
7508,2,7508,143,0.344,0.196,0.117,67.839,-26.392,34.513,0.16,0.21,0.4,-555.0,0.933,0.43,1.101,67.743,-26.512,34.653,0.6,0.26,0.4,-555.0,11.987,91185.664,880.636,11.954,91182.359,880.382,7508,0.117,880.382,-1134876.0,-4.78,2.139,0.0,0.0,0.0,4.8,0.73
7677,2,7677,169,0.318,0.223,0.179,68.61,-26.275,34.396,0.51,0.8,0.280,-555.0,0.64,0.430,0.722,68.678,-25.781,34.171,0.190,0.127,1.384,-555.0,11.968,91185.851,880.820,11.908,91191.843,880.948,7677,0.179,880.948,-1159972.625,3.347,1.908,0.0,0.0,0.0,4.2,0.111
7720,2,7720,43,0.552,0.94,0.202,68.652,-25.910,34.258,0.105,0.10,0.579,-555.0,-1.263,1.320,0.506,70.710,-24.700,33.528,0.289,0.12,1.498,-555.0,11.942,91186.929,880.598,11.885,91192.765,879.945,7720,0.202,879.945,-1168179.375,-23.318,4.328,0.0,0.0,0.0,4.2,0.125
7756,2,7756,36,0.383,0.269,0.180,69.286,-25.416,34.203,0.118,0.11,0.641,-555.0,0.602,0.710,0.370,71.368,-23.677,34.39,0.87,0.127,0.314,-555.0,11.918,91188.15,880.442,11.890,91188.93,879.971,7756,0.180,879.971,-1175075.875,0.715,1.978,0.0,0.0,0.0,4.2,0.112
7799,2,7799,43,0.162,0.614,0.281,70.327,-24.516,34.92,0.62,0.59,1.253,-555.0,2.469,1.514,0.908,73.136,-21.908,34.68,0.263,0.257,3.64,-555.0,11.909,91187.664,880.287,11.908,91183.281,880.189,7799,0.281,880.189,-1185011.125,5.81,1.867,0.0,0.0,0.0,4.15,0.174
7836,2,7836,37,2.277,0.819,0.765,72.198,-22.651,33.966,0.31,0.6,1.821,-555.0,9.640,0.983,-1.317,77.97,-17.187,34.25,0.462,0.301,2.845,-555.0,11.901,91188.281,880.232,11.913,91185.406,880.106,7836,0.765,880.106,-1204370.125,-2.264,2.72,0.0,0.0,0.0,4.15,0.475
7879,2,7879,43,2.805,0.792,0.73,74.270,-20.257,33.890,0.29,0.16,1.909,-555.0,2.577,-8.492,3.470,79.41,-13.811,33.791,0.201,0.14,1.823,-555.0,11.904,91188.109,880.88,11.922,91191.0,880.228,7879,0.73,880.228,-1219244.125,2.840,1.921,0.0,0.0,0.0,4.15,0.45
7915,2,7915,36,3.128,0.907,0.169,76.83,-17.559,33.805,0.58,0.13,1.819,-555.0,0.351,0.746,-1.719,79.771,-11.210,33.104,0.146,0.134,1.50,-555.0,11.913,91187.937,880.144,11.931,91191.921,880.228,7915,0.169,880.228,-1220972.125,0.0,2.0,0.0,0.0,0.0,4.21,0.105
7958,2,7958,43,2.783,0.845,0.297,77.936,-14.931,33.528,0.66,0.36,1.947,-555.0,-1.119,1.19,-1.9,80.634,-10.537,32.651,0.44,0.12,0.953,-555.0,11.922,91188.281,880.275,11.936,91189.796,880.625,7958,0.297,880.625,-1231000.0,9.244,1.782,0.0,0.0,0.0,4.28,0.184
7994,2,7994,36,2.684,-1.296,0.279,79.538,-12.259,33.224,0.10,0.88,1.623,-555.0,1.974,0.739,0.822,81.145,-8.550,32.548,0.122,0.4,1.445,-555.0,11.927,91190.7,880.365,11.931,91191.921,880.638,7994,0.279,880.638,-1241385.250,0.366,1.989,0.0,0.0,0.0,4.28,0.173
8037,2,8037,43,0.300,-1.162,0.519,80.470,-9.897,32.917,0.84,0.25,1.390,-555.0,-2.282,1.651,-2.516,81.759,-5.378,32.490,0.90,0.267,1.677,-555.0,11.931,91190.414,880.370,11.936,91187.390,880.131,8037,0.519,880.131,-1258574.375,-11.793,2.547,0.0,0.0,0.0,4.28,0.322
8185,2,8185,148,0.492,0.140,-1.434,81.537,-5.480,32.464,0.70,0.11,1.415,-555.0,-1.385,-1.974,-1.102,84.375,8.272,31.525,0.130,0.196,1.949,-555.0,11.935,91189.648,880.437,11.940,91187.171,880.562,8185,-1.434,880.562,-1403154.875,2.908,1.919,0.0,0.0,0.0,4.2,0.891
8328,2,8328,143,0.335,0.196,-1.30,82.183,0.511,31.914,0.54,0.7,1.458,-555.0,1.134,0.940,0.297,83.2,18.751,30.356,0.63,0.40,1.266,-555.0,11.927,91188.750,880.477,11.890,91187.453,880.427,8328,-1.30,880.427,-1579395.0,0.938,2.28,0.0,0.0,0.0,4.15,0.640
8366,2,8366,38,0.213,0.341,0.983,82.551,6.769,31.306,0.60,0.20,1.428,-555.0,1.629,0.294,0.772,82.475,20.754,29.611,0.76,0.75,0.806,-555.0,11.914,91187.562,880.401,11.872,91183.843,880.247,8366,0.983,880.247,-1617662.750,-4.739,2.165,0.0,0.0,0.0,4.8,0.611
8512,2,8512,146,0.229,-1.185,0.677,81.750,15.422,30.260,0.17,0.38,1.490,-555.0,0.244,-4.960,0.706,77.141,34.712,27.316,0.93,0.298,1.753,-555.0,11.906,91185.812,880.480,11.890,91183.195,881.32,8512,0.677,881.32,-1738909.125,5.371,1.861,0.0,0.0,0.0,4.15,0.421
8548,2,8548,36,0.693,-1.686,0.249,80.692,23.934,29.111,0.55,0.76,1.239,-555.0,2.333,0.854,0.377,76.468,37.182,26.746,0.98,0.75,0.419,-555.0,11.888,91184.914,880.662,11.849,91182.914,881.44,8548,0.249,881.44,-1755600.0,0.350,1.989,0.0,0.0,0.0,4.21,0.155
8621,2,8621,73,0.964,-1.566,0.83,78.810,29.602,28.287,0.42,0.7,0.846,-555.0,0.28,-1.371,0.269,74.963,36.612,27.404,0.66,0.152,0.14,-555.0,11.874,91186.296,880.718,11.872,91194.109,880.838,8621,0.83,880.838,-1767750.625,-2.820,2.92,0.0,0.0,0.0,4.21,0.51
8657,2,8657,36,0.443,-1.569,0.265,77.234,33.200,27.646,0.57,0.24,0.581,-555.0,-1.471,0.954,0.614,75.124,36.743,27.155,0.140,0.116,0.56,-555.0,11.870,91185.820,880.805,11.867,91185.46,880.863,8657,0.265,880.863,-1774027.0,0.700,1.979,0.0,0.0,0.0,4.21,0.165
8701,2,8701,44,0.73,-1.448,0.248,75.837,36.264,27.293,0.58,0.51,0.381,-555.0,0.222,0.897,0.686,75.489,36.71,27.842,0.82,0.210,0.196,-555.0,11.873,91175.906,882.236,11.890,91134.265,887.404,8701,0.248,887.404,-1785330.375,148.659,1.183,0.0,0.0,0.0,4.28,0.154
8737,2,8737,36,0.241,0.706,0.490,75.466,36.454,27.515,0.66,0.170,0.22,-555.0,0.595,-1.249,0.506,75.285,35.662,28.427,0.55,0.298,0.38,-555.0,11.896,91150.468,884.383,12.5,91055.984,891.764,8737,0.490,891.764,-1798635.875,121.88,1.215,0.0,0.0,0.0,4.28,0.305
8780,2,8780,43,0.262,0.561,0.522,75.299,36.21,27.869,0.86,0.214,0.84,-555.0,0.186,0.129,0.535,75.635,35.19,28.515,0.197,0.292,0.115,-555.0,11.930,91123.914,886.634,12.19,91050.101,892.298,8780,0.522,892.298,-1820424.250,12.431,1.728,0.0,0.0,0.0,4.21,0.324
8816,2,8816,36,0.221,0.343,0.551,75.223,35.524,28.254,0.84,0.254,0.81,-555.0,0.179,0.279,0.413,74.583,34.127,29.333,0.57,0.352,0.0,-555.0,11.964,91097.273,889.112,12.42,91061.0,893.231,8816,0.551,893.231,-1839751.0,25.907,1.562,0.0,0.0,0.0,4.21,0.342
8860,2,8860,44,0.192,0.337,0.535,75.229,34.849,28.877,0.59,0.285,0.172,-555.0,0.595,0.926,0.535,75.153,33.367,30.268,0.14,0.270,0.513,-555.0,12.3,91045.265,894.802,12.60,90924.968,909.312,8860,0.535,909.312,-1863656.875,365.478,1.83,0.0,0.0,0.0,4.28,0.332
8896,2,8896,36,0.55,0.598,0.554,75.83,34.10,29.546,0.65,0.296,0.302,-555.0,-1.464,0.409,0.779,74.758,31.876,31.189,0.111,0.266,0.844,-555.0,12.35,90956.484,903.762,12.51,90690.406,932.207,8896,0.554,932.207,-1883267.875,635.960,1.49,0.0,0.0,0.0,4.15,0.344
8939,2,8939,43,0.139,0.34,0.483,75.194,32.692,30.143,0.74,0.312,0.586,-555.0,1.572,1.572,0.154,75.840,29.70,31.408,0.6,0.379,-1.459,-555.0,12.43,90802.945,919.570,12.46,90288.265,970.802,8939,0.483,970.802,-1905581.0,897.565,1.35,0.0,0.0,0.0,4.15,0.300
8975,2,8975,36,1.85,0.198,0.476,75.352,31.204,30.920,0.28,0.275,0.573,-555.0,4.543,0.947,0.499,76.425,27.579,32.402,0.33,0.110,0.51,-555.0,12.47,90625.367,935.625,12.37,90162.218,972.572,8975,0.476,972.572,-1922866.250,49.175,1.403,0.0,0.0,0.0,4.15,0.296
9115,2,9115,140,1.168,0.101,0.338,76.229,30.719,31.388,0.67,0.49,0.497,-555.0,0.595,1.220,0.275,78.968,31.701,31.672,0.251,0.778,0.381,-555.0,12.50,90514.78,945.222,12.55,90504.515,941.218,9115,0.338,941.218,-1979936.250,-223.958,0.825,0.0,0.0,0.0,4.8,0.210
9370,2,9370,255,0.726,0.15,0.154,80.38,38.909,34.30,0.84,0.49,0.341,-555.0,-1.615,-1.356,0.383,94.197,74.320,43.481,0.100,0.268,0.267,-555.0,12.50,90566.203,939.418,12.60,91185.625,880.291,9370,0.154,880.291,-2042881.875,-238.929,0.837,0.0,0.0,0.0,4.2,0.96
9413,2,9413,43,0.960,0.153,0.133,84.437,49.950,36.705,0.96,0.87,0.104,-555.0,0.294,-1.256,0.671,96.755,87.79,44.562,0.167,0.458,0.339,-555.0,12.36,90666.101,929.18,11.982,91189.875,880.207,9413,0.133,880.207,-2049082.250,-1.947,2.62,0.0,0.0,0.0,4.8,0.82
9449,2,9449,36,0.256,0.921,0.383,89.20,63.624,40.149,0.146,0.50,0.210,-555.0,-1.945,-2.268,-1.404,98.757,97.442,48.626,0.246,0.193,0.115,-555.0,12.27,90845.945,910.926,12.0,91187.468,880.342,9449,0.383,880.342,-2058382.125,3.741,1.899,0.0,0.0,0.0,4.15,0.238
9491,2,9491,42,0.946,0.861,0.111,93.972,78.935,42.470,0.138,0.103,0.86,-555.0,-1.471,0.646,0.857,101.183,104.136,44.7,0.72,0.375,0.671,-555.0,12.22,91050.750,892.502,12.14,91186.265,880.451,9491,0.111,880.451,-2068779.750,2.593,1.927,0.0,0.0,0.0,4.2,0.69
9528,2,9528,37,-1.221,-1.190,0.353,98.880,94.180,44.466,0.8,0.304,0.96,-555.0,0.782,0.423,0.930,103.507,107.921,41.654,0.485,0.226,0.535,-555.0,12.16,91187.289,880.409,12.23,91187.187,880.753,9528,0.353,880.753,-2077381.875,8.155,1.803,0.0,0.0,0.0,4.2,0.219
9571,2,9571,43,0.987,-1.93,0.733,101.116,101.315,43.54,0.136,0.195,0.251,-555.0,0.445,0.875,-1.518,105.378,109.997,36.422,0.539,0.275,0.509,-555.0,12.9,91187.171,880.298,12.28,91185.62,879.738,9571,0.733,879.738,-2100744.500,-23.610,4.428,0.0,0.0,0.0,4.8,0.455
9608,2,9608,37,0.878,0.580,-1.46,103.256,106.132,40.26,0.270,0.11,0.429,-555.0,0.251,1.313,-2.236,107.453,111.166,29.421,0.501,0.461,0.549,-555.0,12.20,91187.507,880.429,12.32,91191.578,880.862,9608,-1.46,880.862,-2133675.750,30.400,1.523,0.0,0.0,0.0,4.8,0.650
9650,2,9650,42,2.997,-2.654,2.304,105.439,109.58,35.13,0.356,0.17,0.423,-555.0,17.436,-12.641,15.350,109.675,112.72,23.560,0.182,0.221,0.146,-555.0,12.23,91187.23,880.574,12.19,91185.62,881.68,9650,2.304,881.68,-2107260.750,4.901,1.871,0.0,0.0,0.0,4.8,1.432
9714,2,9714,64,4.80,-2.526,2.100,106.910,113.270,29.576,0.402,0.158,0.193,-555.0,3.940,0.7,0.162,108.535,125.197,16.822,0.301,0.503,0.478,-555.0,12.24,91186.148,881.352,12.19,91181.875,884.339,9714,2.100,884.339,-1966304.125,51.112,1.394,0.0,0.0,0.0,4.15,1.305
9757,2,9757,43,3.778,-2.808,2.228,107.804,118.59,23.957,0.341,0.280,0.52,-555.0,-2.289,-1.830,0.291,107.980,131.862,13.563,0.184,0.384,0.169,-555.0,12.42,91170.937,882.530,12.111,91111.85,886.641,9757,2.228,886.641,-1873234.875,53.529,1.383,0.0,0.0,0.0,4.15,1.384
9793,2,9793,36,3.470,-2.793,2.439,108.289,123.171,18.950,0.239,0.250,0.2,-555.0,-1.988,0.803,0.463,107.804,135.559,11.385,0.28,0.122,0.233,-555.0,12.58,91146.851,885.680,12.111,91064.671,895.491,9793,2.439,895.491,-1789217.625,245.820,1.119,0.0,0.0,0.0,4.2,1.516
9835,2,9835,42,4.162,-1.168,3.326,109.14,127.898,15.358,0.103,0.157,0.53,-555.0,3.711,9.439,2.199,111.78,134.799,11.458,0.180,0.1,0.291,-555.0,12.72,91089.453,890.913,12.101,90904.593,907.28,9835,3.326,907.28,-1668133.0,274.700,1.108,0.0,0.0,0.0,4.8,2.67
9872,2,9872,37,0.558,0.759,0.149,109.476,133.145,12.759,0.101,0.229,0.79,-555.0,0.581,-3.0,-2.28,111.984,138.307,10.567,0.170,0.138,0.275,-555.0,12.89,91039.257,894.617,12.106,90934.70,899.583,9872,0.149,899.583,-1609351.500,-201.208,0.801,0.0,0.0,0.0,4.15,0.92
9914,2,9914,42,0.877,0.178,0.490,109.979,136.723,11.280,0.59,0.6,0.65,-555.0,-3.237,-2.914,-1.870,111.49,143.86,9.427,0.500,0.613,0.248,-555.0,12.93,91040.296,893.965,12.37,91187.46,881.81,9914,0.490,881.81,-1622794.250,-440.537,0.918,0.0,0.0,0.0,4.21,0.305
9950,2,9950,36,-1.339,-2.18,0.462,111.52,138.611,10.923,0.65,0.198,0.46,-555.0,-4.601,-12.813,0.147,113.344,141.303,11.780,0.156,0.638,0.268,-555.0,12.77,91055.0,892.691,12.32,91184.640,880.271,9950,0.462,880.271,-1639950.250,-22.484,4.72,0.0,0.0,0.0,4.15,0.287
10090,2,10090,140,-1.302,-1.557,0.579,112.791,137.886,11.96,0.78,0.282,0.24,-555.0,-1.801,1.500,-1.52,116.501,131.935,12.247,0.36,0.298,0.128,-555.0,12.65,91079.351,889.615,12.46,91186.406,880.111,10090,0.579,880.111,-1712899.0,-1.142,2.35,0.0,0.0,0.0,4.15,0.360
10126,2,10126,36,-2.466,-3.399,-1.187,114.54,137.38,11.350,0.39,0.350,0.66,-555.0,-2.110,0.229,0.836,117.392,130.561,12.730,0.11,0.340,0.165,-555.0,12.45,91136.140,884.462,12.5,91188.531,881.261,10126,-1.187,881.261,-1744707.750,31.931,1.510,0.0,0.0,0.0,4.15,0.737
10267,2,10267,141,-2.210,-2.918,0.907,115.448,135.586,11.902,0.84,0.407,0.10,-555.0,0.696,0.595,0.628,118.956,131.43,13.329,0.54,0.149,0.3,-555.0,12.29,91077.101,890.647,12.23,90638.859,930.513,10267,0.907,930.513,-1892369.125,349.301,1.87,0.0,0.0,0.0,4.8,0.563
10420,2,10420,153,-1.493,-2.354,0.630,116.615,132.721,12.876,0.2,0.291,0.61,-555.0,0.351,0.93,0.485,116.881,128.763,14.294,0.88,0.32,0.3,-555.0,12.39,90968.0,900.567,12.88,90641.570,930.679,10420,0.630,930.679,-2009983.250,1.89,1.968,0.0,0.0,0.0,4.2,0.391
10463,2,10463,43,0.574,0.265,0.703,117.296,130.239,13.560,0.50,0.167,0.8,-555.0,0.7,0.287,0.513,116.749,128.895,15.200,0.83,0.16,0.5,-555.0,12.60,90860.625,910.247,12.138,90647.765,928.669,10463,0.703,928.669,-2038655.0,-46.747,-1.484,0.0,0.0,0.0,4.21,0.437
10499,2,10499,36,0.200,0.28,0.581,117.395,129.619,14.106,0.39,0.112,0.34,-555.0,0.64,0.315,0.442,116.997,128.836,14.980,0.18,0.22,0.1,-555.0,12.86,90751.445,920.361,12.175,90640.500,930.681,10499,0.581,930.681,-2061780.625,55.882,1.373,0.0,0.0,0.0,4.15,0.361
10544,2,10544,45,0.268,0.74,0.493,117.342,129.242,14.489,0.37,0.49,0.2,-555.0,0.236,0.287,0.399,117.129,128.675,14.644,0.21,0.26,0.8,-555.0,12.124,90639.23,930.479,12.198,90626.429,931.853,10544,0.493,931.853,-2085971.375,26.38,1.561,0.0,0.0,0.0,4.21,0.306
10580,2,10580,36,0.147,0.14,0.457,117.47,128.786,14.641,0.25,0.23,0.4,-555.0,0.93,0.150,0.449,117.480,128.763,14.89,0.3,0.19,0.3,-555.0,12.164,90635.328,930.711,12.221,90620.375,931.675,10580,0.457,931.675,-2103101.500,-4.938,2.173,0.0,0.0,0.0,4.21,0.284
10623,2,10623,43,0.114,0.11,0.450,117.193,128.871,14.577,0.8,0.21,0.4,-555.0,0.186,0.107,0.449,117.611,129.187,13.972,0.3,0.24,0.4,-555.0,12.197,90630.335,930.941,12.253,90616.585,931.827,10623,0.450,931.827,-2122636.500,3.532,1.904,0.0,0.0,0.0,4.21,0.280
10660,2,10660,37,0.142,0.91,0.426,117.459,129.29,14.314,0.5,0.22,0.4,-555.0,0.129,0.229,0.391,118.79,129.684,13.884,0.14,0.21,0.5,-555.0,12.224,90623.578,931.661,12.271,90614.7,932.269,10660,0.426,932.269,-2138861.250,11.959,1.735,0.0,0.0,0.0,4.8,0.264
10702,2,10702,42,0.157,0.199,0.400,117.497,129.240,14.139,0.2,0.22,0.6,-555.0,0.143,0.222,0.312,117.187,129.888,14.104,0.22,0.22,0.8,-555.0,12.246,90618.218,931.918,12.285,90613.695,931.965,10702,0.400,931.965,-2156223.500,-7.234,2.277,0.0,0.0,0.0,4.21,0.248
10738,2,10738,36,0.126,0.169,0.407,117.605,129.435,13.946,0.13,0.22,0.5,-555.0,0.78,0.136,0.434,117.670,129.655,13.680,0.32,0.22,0.5,-555.0,12.267,90617.179,931.908,12.304,90621.242,931.801,10738,0.407,931.801,-2170769.500,-4.555,2.158,0.0,0.0,0.0,4.28,0.253
10781,2,10781,43,0.111,0.162,0.413,117.506,129.649,13.884,0.22,0.22,0.6,-555.0,0.21,0.114,0.477,116.983,129.830,13.782,0.39,0.20,0.8,-555.0,12.287,90617.539,931.875,12.322,90622.148,931.513,10781,0.413,931.513,-2188421.500,-6.719,2.252,0.0,0.0,0.0,4.28,0.256
11149,2,11149,368,0.81,0.114,0.416,117.410,129.678,13.963,0.28,0.21,0.6,-555.0,0.35,0.129,0.463,117.129,129.333,14.367,0.33,0.20,0.3,-555.0,12.304,90620.156,931.719,12.336,90629.695,931.46,11149,0.416,931.46,-2341075.750,-1.266,2.39,0.0,0.0,0.0,4.8,0.258
11193,2,11193,44,0.74,0.84,0.419,117.187,129.549,14.30,0.26,0.22,0.5,-555.0,0.93,0.78,0.406,116.968,129.41,14.220,0.5,0.25,0.1,-555.0,12.325,90624.78,931.444,12.377,90633.609,930.896,11193,0.419,930.896,-2359454.250,-3.426,2.114,0.0,0.0,0.0,4.15,0.260
11229,2,11229,36,0.70,0.83,0.455,117.114,129.409,14.98,0.24,0.22,0.5,-555.0,0.122,0.215,0.492,116.822,129.187,14.440,0.12,0.25,0.5,-555.0,12.350,90628.179,931.239,12.409,90634.195,930.938,11229,0.455,930.938,-2375189.0,1.176,1.965,0.0,0.0,0.0,4.15,0.282
11272,2,11272,43,0.86,0.90,0.447,117.30,129.310,14.244,0.23,0.22,0.5,-555.0,0.157,0.172,0.399,117.246,129.158,14.410,0.28,0.22,0.5,-555.0,12.375,90629.109,931.237,12.432,90625.867,931.794,11272,0.447,931.794,-2394600.500,19.915,1.625,0.0,0.0,0.0,4.15,0.278
11308,2,11308,36,0.106,0.73,0.440,116.977,129.210,14.340,0.22,0.22,0.4,-555.0,0.122,0.28,0.442,116.720,129.333,14.264,0.33,0.21,0.3,-555.0,12.401,90632.23,931.220,12.451,90636.742,931.424,11308,0.440,931.424,-2410593.500,-10.289,2.446,0.0,0.0,0.0,4.2,0.273
11363,2,11363,55,0.120,0.114,0.440,116.837,129.280,14.279,0.18,0.23,0.4,-555.0,0.107,0.78,0.463,116.427,129.684,14.60,0.11,0.22,0.4,-555.0,12.431,90631.375,931.196,12.483,90626.445,930.928,11363,0.440,930.928,-2434830.0,-9.15,2.370,0.0,0.0,0.0,4.2,0.273
11399,2,11399,36,0.107,0.124,0.452,116.851,129.295,14.334,0.20,0.22,0.4,-555.0,0.28,0.129,0.463,117.41,129.114,14.498,0.17,0.21,0.3,-555.0,12.452,90629.875,931.329,12.483,90626.132,931.563,11399,0.452,931.563,-2450900.750,17.625,1.654,0.0,0.0,0.0,4.8,0.281
11443,2,11443,44,0.110,0.96,0.442,116.822,129.254,14.440,0.22,0.22,0.4,-555.0,0.136,0.71,0.442,116.676,128.982,14.966,0.22,0.25,0.3,-555.0,12.471,90629.773,931.521,12.506,90633.687,931.894,11443,0.442,931.894,-2470574.250,7.543,1.815,0.0,0.0,0.0,4.2,0.274
11479,2,11479,36,0.90,0.73,0.459,116.653,129.222,14.495,0.21,0.22,0.4,-555.0,0.57,0.57,0.485,116.398,128.997,14.688,0.22,0.20,0.5,-555.0,12.488,90629.484,931.381,12.520,90624.445,931.95,11479,0.459,931.95,-2486800.0,-22.198,3.993,0.0,0.0,0.0,4.2,0.285
11524,2,11524,45,0.96,0.84,0.463,116.568,129.166,14.536,0.18,0.21,0.5,-555.0,0.150,0.86,0.463,116.296,129.55,14.469,0.19,0.18,0.10,-555.0,12.507,90630.390,931.461,12.543,90641.234,931.827,11524,0.463,931.827,-2507566.750,16.254,1.672,0.0,0.0,0.0,4.2,0.288
11560,2,11560,36,0.96,0.86,0.449,116.617,129.82,14.630,0.20,0.21,0.5,-555.0,0.107,0.86,0.391,116.676,129.260,14.527,0.21,0.21,0.4,-555.0,12.519,90631.953,931.418,12.543,90634.265,930.711,11560,0.449,930.711,-2523999.250,-30.988,15.218,0.0,0.0,0.0,4.15,0.279
11603,2,11603,43,0.111,0.76,0.443,116.597,129.58,14.606,0.22,0.21,0.6,-555.0,0.107,0.78,0.434,116.939,128.997,14.381,0.24,0.23,0.6,-555.0,12.534,90631.523,931.314,12.557,90623.976,931.42,11603,0.443,931.42,-2543194.750,7.704,1.812,0.0,0.0,0.0,4.2,0.275
11639,2,11639,36,0.18,1.916,0.24,116.588,129.64,14.522,0.24,0.17,0.7,-555.0,0.516,9.891,1.654,116.632,129.11,14.542,0.33,0.1,0.11,-555.0,12.545,90630.914,931.188,12.566,90630.625,931.264,11639,0.24,931.264,-2551616.0,6.161,1.843,0.0,0.0,0.0,4.8,0.15
11682,2,11682,43,0.10,1.913,0.14,116.720,129.143,14.513,0.23,0.17,0.7,-555.0,0.100,0.71,0.434,117.56,129.391,14.644,0.19,0.22,0.5,-555.0,12.556,90631.421,931.263,12.570,90626.984,931.471,11682,0.14,931.471,-2552445.250,4.813,1.873,0.0,0.0,0.0,3.996,0.8
11718,2,11718,36,0.10,1.903,0.5,116.840,129.187,14.466,0.25,0.18,0.7,-555.0,0.150,0.136,0.363,116.895,129.275,14.235,0.25,0.23,0.6,-555.0,12.562,90628.109,931.93,12.575,90624.718,930.975,11718,0.5,930.975,-2552597.0,-13.775,2.704,0.0,0.0,0.0,4.2,0.3
11859,2,11859,141,0.2,1.915,0.5,116.851,129.137,14.466,0.26,0.18,0.8,-555.0,0.143,0.28,0.391,116.734,129.11,14.527,0.26,0.22,0.10,-555.0,12.570,90627.929,931.131,12.584,90633.367,930.904,11859,0.5,930.904,-2551774.0,0.507,2.15,0.0,0.0,0.0,4.15,0.3
12127,2,12127,268,0.11,1.908,0.21,116.802,129.216,14.425,0.26,0.18,0.7,-555.0,0.64,0.114,0.355,116.691,129.391,14.177,0.25,0.23,0.5,-555.0,12.569,90628.234,931.126,12.552,90625.507,931.14,12127,0.21,931.14,-2548093.500,0.410,1.987,0.0,0.0,0.0,4.2,0.13
12170,2,12170,43,0.110,0.76,0.393,116.799,129.228,14.337,0.24,0.21,0.6,-555.0,0.93,0.28,0.420,116.617,129.70,14.104,0.25,0.16,0.4,-555.0,12.567,90629.640,930.999,12.552,90637.593,930.630,12170,0.393,930.630,-2556084.0,-8.932,2.366,0.0,0.0,0.0,4.2,0.244
12207,2,12207,37,0.107,0.64,0.376,116.729,129.225,14.200,0.24,0.20,0.6,-555.0,0.86,0.14,0.348,116.705,129.377,13.957,0.19,0.19,0.7,-555.0,12.567,90629.843,930.941,12.570,90628.39,931.182,12207,0.376,931.182,-2570316.750,14.932,1.690,0.0,0.0,0.0,4.21,0.233
12250,2,12250,43,0.106,0.63,0.388,116.688,129.207,14.188,0.22,0.21,0.6,-555.0,0.143,0.129,0.427,116.691,129.187,14.177,0.17,0.24,0.6,-555.0,12.569,90631.171,930.880,12.589,90631.367,930.672,12250,0.388,930.672,-2586765.0,-11.863,2.552,0.0,0.0,0.0,4.2,0.241
12286,2,12286,36,0.120,0.73,0.393,116.667,129.169,14.142,0.22,0.20,0.5,-555.0,0.215,0.78,0.413,116.632,128.821,14.294,0.26,0.21,0.6,-555.0,12.573,90630.953,930.906,12.602,90632.265,931.33,12286,0.393,931.33,-2600845.750,10.13,1.768,0.0,0.0,0.0,4.21,0.244
12329,2,12329,43,0.142,0.66,0.413,116.606,129.67,14.109,0.21,0.20,0.5,-555.0,0.172,0.78,0.456,116.384,128.880,14.16,0.17,0.21,0.3,-555.0,12.589,90631.546,930.951,12.630,90628.460,931.240,12329,0.413,931.240,-2618189.250,4.824,1.873,0.0,0.0,0.0,4.15,0.256
12365,2,12365,36,0.157,0.68,0.419,116.705,129.32,14.223,0.20,0.21,0.5,-555.0,0.172,0.43,0.449,117.114,128.895,14.674,0.21,0.22,0.6,-555.0,12.603,90629.929,931.101,12.625,90629.515,931.380,12365,0.419,931.380,-2633174.500,3.884,1.895,0.0,0.0,0.0,4.28,0.260
12420,2,12420,55,0.143,0.84,0.437,116.647,128.930,14.302,0.21,0.23,0.5,-555.0,0.14,0.93,0.442,116.413,128.865,14.352,0.22,0.25,0.2,-555.0,12.619,90629.984,931.119,12.648,90628.304,931.269,12420,0.437,931.269,-2656739.750,-2.21,2.64,0.0,0.0,0.0,4.15,0.272
12456,2,12456,36,0.149,0.74,0.440,116.539,128.971,14.431,0.22,0.22,0.5,-555.0,0.172,0.78,0.442,116.150,129.391,14.820,0.21,0.23,0.8,-555.0,12.629,90628.648,931.95,12.639,90624.664,930.552,12456,0.440,930.552,-2672552.0,-19.919,3.484,0.0,0.0,0.0,4.21,0.273
12502,2,12502,46,0.111,0.70,0.443,116.609,129.9,14.533,0.20,0.23,0.5,-555.0,0.28,0.57,0.427,116.983,129.11,14.805,0.19,0.24,0.5,-555.0,12.637,90626.882,931.46,12.644,90623.445,930.788,12502,0.443,930.788,-2692888.500,5.144,1.866,0.0,0.0,0.0,4.28,0.275
12538,2,12538,36,0.96,0.78,0.446,116.685,129.6,14.644,0.22,0.23,0.5,-555.0,0.93,0.122,0.470,116.764,128.865,14.571,0.26,0.24,0.4,-555.0,12.644,90627.875,931.38,12.662,90633.421,931.202,12538,0.446,931.202,-2708907.500,11.496,1.743,0.0,0.0,0.0,4.21,0.277
12581,2,12581,43,0.78,0.81,0.427,116.612,129.3,14.694,0.22,0.23,0.5,-555.0,0.86,0.57,0.355,116.749,128.880,14.922,0.21,0.21,0.4,-555.0,12.655,90627.500,930.903,12.681,90627.671,930.706,12581,0.427,930.706,-2727701.750,-11.531,2.528,0.0,0.0,0.0,4.21,0.265
12617,2,12617,36,0.100,0.86,0.416,116.556,129.49,14.820,0.21,0.23,0.5,-555.0,0.122,0.114,0.384,116.135,129.99,14.980,0.19,0.24,0.3,-555.0,12.662,90627.93,930.813,12.685,90626.296,930.816,12617,0.416,930.816,-2742893.750,3.56,1.915,0.0,0.0,0.0,4.28,0.258
12660,2,12660,43,0.91,0.87,0.399,116.597,129.11,14.697,0.21,0.22,0.4,-555.0,0.129,0.86,0.355,116.354,129.201,14.206,0.21,0.19,0.5,-555.0,12.673,90628.296,930.850,12.694,90630.679,930.735,12660,0.399,930.735,-2760422.500,-1.880,2.59,0.0,0.0,0.0,4.21,0.247
12696,2,12696,36,0.106,0.84,0.396,116.641,129.29,14.755,0.20,0.22,0.4,-555.0,0.100,0.43,0.413,117.202,129.99,15.97,0.12,0.21,0.4,-555.0,12.683,90630.390,930.966,12.694,90633.843,931.370,12696,0.396,931.370,-2774735.750,17.640,1.653,0.0,0.0,0.0,4.8,0.246
12837,2,12837,141,0.107,0.80,0.391,116.544,129.76,14.858,0.18,0.21,0.4,-555.0,0.100,0.100,0.449,116.281,129.99,15.83,0.20,0.19,0.4,-555.0,12.693,90630.601,930.867,12.708,90634.476,930.706,12837,0.391,930.706,-2830290.250,-4.710,2.164,0.0,0.0,0.0,4.15,0.243
12873,2,12873,36,0.91,0.87,0.411,116.474,129.131,14.869,0.18,0.21,0.4,-555.0,0.7,0.93,0.456,116.398,129.158,14.980,0.21,0.21,0.6,-555.0,12.691,90631.921,930.991,12.671,90634.320,931.327,12873,0.411,931.327,-2844758.750,17.244,1.659,0.0,0.0,0.0,4.2,0.256
13147,2,13147,274,0.78,0.76,0.406,116.503,129.90,14.764,0.19,0.21,0.5,-555.0,0.57,0.57,0.355,116.281,128.895,14.454,0.21,0.22,0.5,-555.0,12.693,90632.78,931.104,12.694,90627.93,931.380,13147,0.406,931.380,-2956846.250,0.192,1.994,0.0,0.0,0.0,4.15,0.252
13184,2,13184,37,0.73,0.68,0.423,116.416,129.52,14.793,0.19,0.22,0.4,-555.0,0.100,0.50,0.442,115.916,129.11,14.352,0.22,0.28,0.3,-555.0,12.684,90631.757,931.156,12.653,90629.46,930.995,13184,0.423,930.995,-2972194.750,-10.412,2.454,0.0,0.0,0.0,4.21,0.263
13228,2,13228,44,0.136,0.17,0.176,116.258,129.196,14.729,0.21,0.22,0.2,-555.0,0.416,0.387,0.821,116.413,129.815,14.776,0.24,0.18,0.8,-555.0,12.679,90630.515,931.45,12.667,90627.671,930.816,13228,0.176,930.816,-2985393.250,-4.53,2.138,0.0,0.0,0.0,4.21,0.109
13264,2,13264,36,0.143,0.28,0.167,116.223,129.304,14.630,0.22,0.21,0.1,-555.0,0.136,0.43,0.406,116.106,129.640,14.586,0.22,0.19,0.2,-555.0,12.673,90630.7,931.89,12.681,90631.890,930.927,13264,0.167,930.927,-2991592.0,3.89,1.915,0.0,0.0,0.0,4.8,0.104
13306,2,13306,42,0.146,0.41,0.172,116.214,129.371,14.533,0.21,0.22,0.1,-555.0,0.21,0.28,0.477,116.354,129.494,14.498,0.17,0.22,0.5,-555.0,12.679,90629.281,931.12,12.699,90630.679,930.942,13306,0.172,930.942,-2998733.500,0.353,1.989,0.0,0.0,0.0,4.2,0.107
13343,2,13343,37,0.147,0.20,0.190,116.252,129.497,14.475,0.21,0.21,0.2,-555.0,0.64,0.165,0.449,116.471,129.523,14.162,0.20,0.20,0.8,-555.0,12.681,90631.750,930.848,12.704,90639.437,930.557,13343,0.190,930.557,-3005449.750,-10.412,2.454,0.0,0.0,0.0,4.15,0.118
13385,2,13385,42,0.146,0.4,0.196,116.354,129.567,14.486,0.21,0.20,0.2,-555.0,0.93,0.129,0.470,116.427,129.362,14.410,0.21,0.21,0.5,-555.0,12.692,90631.562,930.862,12.708,90628.85,931.67,13385,0.196,931.67,-3013586.250,12.147,1.732,0.0,0.0,0.0,4.8,0.122
13443,2,13443,58,0.99,0.80,0.437,116.416,129.488,14.446,0.20,0.20,0.5,-555.0,0.179,0.35,0.384,116.720,129.421,14.571,0.19,0.18,0.5,-555.0,12.702,90633.234,930.890,12.717,90636.117,930.957,13443,0.437,930.957,-3031983.500,-1.897,2.60,0.0,0.0,0.0,4.2,0.272
13488,2,13488,45,0.78,0.91,0.417,116.524,129.409,14.451,0.19,0.21,0.4,-555.0,0.35,0.100,0.305,116.647,129.245,14.615,0.17,0.24,0.0,-555.0,12.708,90632.515,931.1,12.713,90628.250,931.481,13488,0.417,931.481,-3051232.0,11.642,1.741,0.0,0.0,0.0,4.15,0.259
13524,2,13524,36,0.100,0.104,0.407,116.547,129.348,14.484,0.21,0.21,0.4,-555.0,0.129,0.93,0.427,116.471,129.187,14.659,0.27,0.22,0.0,-555.0,12.711,90632.453,931.67,12.713,90630.359,931.274,13524,0.407,931.274,-3066088.0,-5.749,2.208,0.0,0.0,0.0,4.2,0.253
13566,2,13566,42,0.116,0.81,0.388,116.465,129.336,14.542,0.22,0.22,0.3,-555.0,0.143,0.50,0.355,116.62,129.465,14.454,0.28,0.24,0.5,-555.0,12.715,90631.54,931.274,12.722,90632.468,931.592,13566,0.388,931.592,-3082817.0,7.561,1.815,0.0,0.0,0.0,4.15,0.241
13602,2,13602,36,0.139,0.66,0.399,116.381,129.359,14.589,0.22,0.23,0.3,-555.0,0.208,0.50,0.521,116.4,129.479,14.644,0.19,0.25,0.7,-555.0,12.717,90630.539,931.156,12.722,90625.500,930.476,13602,0.399,930.476,-3097001.250,-31.2,15.300,0.0,0.0,0.0,4.8,0.247
13644,2,13644,42,0.127,0.61,0.413,116.311,129.283,14.592,0.22,0.22,0.3,-555.0,0.122,0.14,0.456,116.369,129.41,14.586,0.20,0.17,0.4,-555.0,12.720,90630.453,931.145,12.731,90635.640,930.904,13644,0.413,930.904,-3114062.0,10.207,1.765,0.0,0.0,0.0,4.2,0.256
13680,2,13680,36,0.179,0.60,0.450,116.407,129.204,14.609,0.23,0.23,0.5,-555.0,0.294,0.93,0.492,117.129,128.851,14.703,0.23,0.28,0.7,-555.0,12.725,90630.562,931.237,12.736,90628.828,931.939,13680,0.450,931.939,-3129615.750,28.740,1.536,0.0,0.0,0.0,4.2,0.280
13820,2,13820,140,0.145,0.53,0.400,116.246,129.114,14.560,0.21,0.23,0.6,-555.0,0.43,0.57,0.176,115.667,128.734,14.410,0.16,0.19,0.8,-555.0,12.730,90629.859,931.196,12.740,90626.875,931.67,13820,0.400,931.67,-3189198.250,-6.226,2.229,0.0,0.0,0.0,4.2,0.248
13856,2,13856,36,0.111,0.77,0.470,116.194,129.55,14.492,0.20,0.27,0.7,-555.0,0.21,0.172,0.707,115.799,129.172,14.118,0.21,0.44,0.8,-555.0,12.731,90628.15,931.17,12.727,90623.226,930.697,13856,0.470,930.697,-3204881.250,-10.287,2.446,0.0,0.0,0.0,3.996,0.292
13997,2,13997,141,0.83,0.27,0.403,116.191,128.976,14.422,0.18,0.24,0.7,-555.0,0.64,0.200,0.183,115.989,129.85,14.294,0.10,0.10,0.6,-555.0,12.736,90630.351,931.14,12.745,90637.171,930.461,13997,0.403,930.461,-3266508.750,-1.670,2.52,0.0,0.0,0.0,4.8,0.250
14268,2,14268,271,0.81,0.50,0.443,116.296,129.9,14.332,0.18,0.24,0.7,-555.0,0.114,0.129,0.657,116.895,129.201,14.133,0.18,0.18,0.5,-555.0,12.731,90630.875,930.822,12.708,90638.281,929.946,14268,0.443,929.946,-3381259.750,-1.900,2.60,0.0,0.0,0.0,4.2,0.275
14313,2,14313,45,0.47,0.61,0.414,116.246,129.41,14.250,0.18,0.22,0.7,-555.0,0.122,0.150,0.348,116.881,129.11,14.294,0.24,0.20,0.7,-555.0,12.715,90632.703,930.407,12.653,90637.968,929.864,14313,0.414,929.864,-3400572.750,-1.821,2.57,0.0,0.0,0.0,4.15,0.257
14349,2,14349,36,0.67,0.54,0.472,116.398,129.149,14.188,0.20,0.22,0.6,-555.0,0.57,0.21,0.463,116.427,129.275,14.104,0.27,0.20,0.6,-555.0,12.703,90635.554,930.90,12.681,90641.132,929.480,14349,0.472,929.480,-3416540.0,-10.669,2.470,0.0,0.0,0.0,4.21,0.293
14392,2,14392,43,0.64,0.41,0.386,116.632,129.52,14.261,0.18,0.17,0.6,-555.0,0.35,0.107,0.276,116.968,128.690,14.484,0.11,0.19,0.5,-555.0,12.694,90639.562,929.913,12.685,90643.242,929.811,14392,0.386,929.811,-3434994.750,7.703,1.812,0.0,0.0,0.0,4.21,0.239
14429,2,14429,37,0.81,0.113,0.443,116.802,129.9,14.261,0.21,0.22,0.6,-555.0,0.150,0.157,0.470,116.837,128.865,14.294,0.24,0.32,0.7,-555.0,12.685,90640.46,929.846,12.699,90639.601,930.129,14429,0.443,930.129,-3450343.250,8.582,1.795,0.0,0.0,0.0,4.21,0.275
14471,2,14471,42,0.91,0.101,0.419,116.799,128.979,14.273,0.22,0.22,0.6,-555.0,0.165,0.71,0.535,116.881,129.55,14.191,0.26,0.21,0.5,-555.0,12.685,90640.62,929.866,12.708,90638.382,930.47,14471,0.419,930.47,-3468459.250,-1.953,2.62,0.0,0.0,0.0,4.21,0.260
14507,2,14507,36,0.93,0.70,0.450,116.731,128.976,14.235,0.22,0.22,0.6,-555.0,0.129,0.7,0.506,116.544,128.997,14.104,0.20,0.21,0.5,-555.0,12.698,90641.718,929.861,12.717,90646.250,929.841,14507,0.450,929.841,-3484116.500,-5.732,2.207,0.0,0.0,0.0,4.15,0.280
14610,2,14610,103,0.96,0.74,0.443,116.696,128.938,14.232,0.20,0.22,0.5,-555.0,0.71,0.43,0.427,116.252,129.85,14.89,0.21,0.20,0.5,-555.0,12.707,90643.15,929.988,12.727,90647.625,930.115,14610,0.443,930.115,-3530170.250,2.660,1.926,0.0,0.0,0.0,4.15,0.275
14646,2,14646,36,0.136,0.64,0.459,115.974,129.38,14.253,0.21,0.23,0.5,-555.0,0.165,0.57,0.355,113.358,129.187,14.586,0.16,0.20,0.3,-555.0,12.710,90642.289,930.135,12.699,90639.601,930.543,14646,0.459,930.543,-3546421.750,11.893,1.737,0.0,0.0,0.0,4.21,0.285
14690,2,14690,44,0.100,0.41,0.442,116.39,129.73,14.203,0.20,0.20,0.5,-555.0,0.28,0.43,0.384,117.158,129.41,14.45,0.17,0.20,0.5,-555.0,12.713,90641.773,930.246,12.713,90637.7,930.683,14690,0.442,930.683,-3566253.250,3.189,1.912,0.0,0.0,0.0,4.21,0.274
14726,2,14726,36,0.67,0.41,0.410,115.901,129.58,14.223,0.20,0.20,0.5,-555.0,0.0,0.71,0.377,116.194,128.982,14.294,0.24,0.18,0.7,-555.0,12.716,90642.554,930.334,12.727,90642.289,930.490,14726,0.410,930.490,-3581600.250,-5.366,2.191,0.0,0.0,0.0,4.28,0.255
14769,2,14769,43,0.63,0.48,0.384,115.860,129.79,14.218,0.20,0.20,0.5,-555.0,0.107,0.28,0.377,116.340,129.99,14.74,0.22,0.24,0.2,-555.0,12.724,90641.968,930.285,12.754,90643.343,929.596,14769,0.384,929.596,-3598696.750,-20.795,3.658,0.0,0.0,0.0,4.15,0.239
14805,2,14805,36,0.453,1.531,-1.860,115.986,129.3,14.320,0.21,0.23,0.5,-555.0,-2.512,7.860,-7.807,116.881,128.705,14.600,0.24,0.33,0.6,-555.0,12.731,90641.46,930.391,12.763,90643.23,930.645,14805,-1.860,930.645,-3639111.0,29.135,1.533,0.0,0.0,0.0,4.2,-1.156
14945,2,14945,140,0.473,1.524,-1.872,116.711,128.962,14.191,0.21,0.22,0.5,-555.0,0.64,0.93,0.413,116.983,128.982,13.943,0.18,0.18,0.4,-555.0,12.745,90638.679,930.381,12.768,90627.773,930.490,14945,-1.872,930.490,-3900394.0,-1.104,2.34,0.0,0.0,0.0,4.15,-1.163
14981,2,14981,36,0.443,1.503,-1.886,116.547,129.35,14.168,0.22,0.23,0.5,-555.0,0.122,0.150,0.456,116.340,129.406,13.928,0.25,0.25,0.7,-555.0,12.747,90637.921,930.428,12.722,90633.203,930.918,14981,-1.886,930.918,-3968046.250,11.893,1.737,0.0,0.0,0.0,4.15,-1.172
15123,2,15123,142,0.427,1.511,-1.863,116.670,129.52,14.101,0.23,0.24,0.5,-555.0,0.78,0.28,0.262,116.807,129.70,13.957,0.24,0.19,0.5,-555.0,12.750,90635.296,930.507,12.745,90629.140,930.889,15123,-1.863,930.889,-4234285.0,0.201,2.6,0.0,0.0,0.0,4.2,-1.158
15276,2,15276,153,0.417,1.493,-1.886,116.872,129.11,14.162,0.22,0.23,0.5,-555.0,0.157,0.122,0.492,117.348,128.895,14.381,0.19,0.22,0.4,-555.0,12.746,90632.953,930.824,12.731,90631.570,931.178,15276,-1.886,931.178,-4521148.0,1.888,1.946,0.0,0.0,0.0,4.8,-1.172
15320,2,15320,44,0.89,0.113,0.381,116.767,129.87,14.86,0.21,0.21,0.4,-555.0,0.21,0.172,0.284,116.354,129.85,14.220,0.20,0.19,0.0,-555.0,12.737,90630.382,931.16,12.717,90630.203,931.606,15320,0.381,931.606,-4571048.500,9.719,1.774,0.0,0.0,0.0,4.15,0.237
15356,2,15356,36,0.70,0.122,0.364,116.673,129.123,14.16,0.21,0.21,0.4,-555.0,0.28,0.136,0.327,116.515,129.158,13.592,0.19,0.21,0.4,-555.0,12.729,90630.375,931.160,12.731,90627.773,931.207,15356,0.364,931.207,-4584483.0,-11.84,2.498,0.0,0.0,0.0,4.15,0.226
15399,2,15399,43,0.71,0.99,0.353,116.693,129.70,13.978,0.23,0.21,0.5,-555.0,0.129,0.35,0.399,116.442,129.143,13.738,0.30,0.23,0.9,-555.0,12.732,90630.414,931.281,12.736,90633.367,931.525,15399,0.353,931.525,-4599912.500,7.385,1.818,0.0,0.0,0.0,4.15,0.219
15436,2,15436,37,0.80,0.97,0.386,116.749,129.49,14.7,0.22,0.22,0.5,-555.0,0.122,0.21,0.427,117.85,128.968,14.104,0.24,0.24,0.9,-555.0,12.731,90629.437,931.306,12.740,90624.281,931.14,15436,0.386,931.14,-4613587.500,-13.788,2.705,0.0,0.0,0.0,4.15,0.239
15478,2,15478,42,0.86,0.91,0.384,116.620,129.126,13.902,0.22,0.21,0.4,-555.0,0.186,0.93,0.485,116.705,129.275,13.855,0.18,0.21,0.0,-555.0,12.733,90629.351,931.296,12.740,90631.93,931.126,15478,0.384,931.126,-4629774.0,2.647,1.926,0.0,0.0,0.0,4.15,0.239
15514,2,15514,36,0.99,0.71,0.401,116.641,129.120,14.13,0.22,0.23,0.5,-555.0,0.86,0.71,0.370,116.457,129.55,14.776,0.17,0.25,0.4,-555.0,12.739,90629.703,931.238,12.750,90631.992,931.318,15514,0.401,931.318,-4643932.500,5.335,1.862,0.0,0.0,0.0,4.15,0.249
15559,2,15559,45,0.114,0.55,0.426,116.626,129.120,14.177,0.22,0.23,0.5,-555.0,0.50,0.57,0.449,116.442,129.158,14.410,0.23,0.21,0.4,-555.0,12.743,90631.273,931.117,12.750,90635.640,930.601,15559,0.426,930.601,-4662567.0,-15.923,2.914,0.0,0.0,0.0,4.2,0.264
15596,2,15596,37,0.104,0.64,0.413,116.749,129.219,14.402,0.20,0.23,0.4,-555.0,0.78,0.78,0.334,117.56,129.640,14.864,0.16,0.21,0.5,-555.0,12.743,90630.367,930.951,12.736,90628.828,930.697,15596,0.413,930.697,-4678101.500,2.588,1.927,0.0,0.0,0.0,4.21,0.256
15639,2,15639,43,0.100,0.73,0.416,116.816,129.283,14.501,0.18,0.22,0.2,-555.0,0.100,0.64,0.442,117.421,129.289,14.600,0.15,0.20,0.1,-555.0,12.744,90633.93,930.824,12.745,90637.906,930.379,15639,0.416,930.379,-4695939.0,-7.385,2.284,0.0,0.0,0.0,3.996,0.258
16006,2,16006,367,0.68,0.60,0.411,116.805,129.254,14.583,0.19,0.22,0.4,-555.0,0.28,0.28,0.463,116.647,129.128,14.264,0.24,0.23,0.8,-555.0,12.742,90633.898,930.770,12.731,90635.117,930.855,16006,0.411,930.855,-4847915.0,1.295,1.962,0.0,0.0,0.0,4.2,0.256
16049,2,16049,43,0.81,0.53,0.413,116.980,129.321,14.586,0.19,0.21,0.4,-555.0,0.150,0.35,0.377,117.334,129.391,14.790,0.19,0.19,0.5,-555.0,12.721,90635.578,930.700,12.644,90640.390,930.966,16049,0.413,930.966,-4865659.500,2.586,1.928,0.0,0.0,0.0,4.2,0.256
16085,2,16085,36,0.93,0.67,0.397,117.167,129.339,14.568,0.19,0.22,0.4,-555.0,0.107,0.129,0.370,117.377,129.245,14.323,0.23,0.25,0.5,-555.0,12.703,90634.710,930.674,12.658,90631.312,930.471,16085,0.397,930.471,-4880257.0,-13.758,2.702,0.0,0.0,0.0,4.2,0.247
16127,2,16127,42,0.86,0.73,0.403,117.100,129.313,14.536,0.20,0.21,0.5,-555.0,0.43,0.107,0.363,116.720,129.508,14.703,0.21,0.17,0.8,-555.0,12.687,90635.203,930.750,12.658,90631.312,931.77,16127,0.403,931.77,-4897076.500,14.426,1.697,0.0,0.0,0.0,4.15,0.250
16163,2,16163,36,0.100,0.77,0.411,116.977,129.277,14.615,0.21,0.22,0.6,-555.0,0.172,0.86,0.485,116.807,129.114,14.995,0.20,0.25,0.5,-555.0,12.669,90634.140,930.867,12.653,90632.531,930.966,16163,0.411,930.966,-4911751.500,-3.72,2.101,0.0,0.0,0.0,4.8,0.256
16216,2,16216,53,0.114,0.89,0.404,117.12,129.245,14.580,0.22,0.21,0.5,-555.0,0.100,0.86,0.427,116.822,128.968,14.89,0.27,0.20,0.4,-555.0,12.652,90633.671,931.10,12.648,90632.843,931.572,16216,0.404,931.572,-4933394.500,11.433,1.744,0.0,0.0,0.0,4.15,0.251
16252,2,16252,36,0.99,0.106,0.426,116.995,129.219,14.519,0.24,0.22,0.6,-555.0,0.71,0.122,0.485,117.246,129.260,14.484,0.28,0.22,0.8,-555.0,12.649,90631.710,931.4,12.630,90630.578,930.937,16252,0.426,930.937,-4948354.0,-17.642,3.124,0.0,0.0,0.0,4.2,0.264
16296,2,16296,44,0.94,0.100,0.434,116.883,129.213,14.609,0.24,0.21,0.6,-555.0,0.86,0.100,0.413,116.822,129.216,14.776,0.23,0.23,0.5,-555.0,12.646,90631.812,931.78,12.639,90631.789,930.841,16296,0.434,930.841,-4967301.0,-2.176,2.69,0.0,0.0,0.0,4.8,0.270
16333,2,16333,37,0.81,0.94,0.432,116.971,129.158,14.595,0.22,0.22,0.5,-555.0,0.21,0.78,0.348,117.158,129.231,14.630,0.14,0.18,0.0,-555.0,12.641,90630.62,930.971,12.635,90622.546,930.538,16333,0.432,930.538,-4983340.0,-8.195,2.326,0.0,0.0,0.0,4.8,0.268
16375,2,16375,42,0.162,0.584,-1.415,116.980,129.201,14.560,0.24,0.0,0.0,-555.0,-1.48,3.309,-5.402,116.851,129.333,14.820,0.29,0.82,0.18,-555.0,12.637,90628.968,930.946,12.635,90627.93,930.841,16375,-1.415,930.841,-5022138.500,7.219,1.821,0.0,0.0,0.0,4.2,0.879
16411,2,16411,36,0.167,0.591,-1.416,117.109,129.204,14.554,0.24,0.0,0.1,-555.0,0.71,0.50,0.434,117.465,128.982,14.60,0.29,0.18,0.8,-555.0,12.635,90628.515,930.879,12.635,90630.578,931.240,16411,-1.416,931.240,-5073122.500,11.82,1.750,0.0,0.0,0.0,4.21,0.880
16453,2,16453,42,0.166,0.604,-1.409,117.126,129.152,14.527,0.23,0.0,0.0,-555.0,0.78,0.57,0.449,117.334,128.997,14.352,0.19,0.22,0.4,-555.0,12.635,90628.796,930.918,12.630,90631.945,931.129,16453,-1.409,931.129,-5132483.0,-2.646,2.86,0.0,0.0,0.0,4.28,0.876
16489,2,16489,36,0.153,0.610,-1.411,117.126,129.219,14.451,0.22,0.0,0.0,-555.0,0.150,0.71,0.420,116.822,129.552,14.396,0.19,0.19,0.3,-555.0,12.629,90627.39,930.953,12.612,90623.23,931.19,16489,-1.411,931.19,-5183260.0,-3.58,2.101,0.0,0.0,0.0,4.15,0.877
16534,2,16534,45,0.123,0.611,-1.395,117.111,129.213,14.481,0.25,0.0,0.2,-555.0,0.129,0.71,0.269,117.85,129.201,14.776,0.29,0.19,0.12,-555.0,12.625,90629.921,930.983,12.612,90636.960,930.687,16534,-1.395,930.687,-5246408.500,-7.374,2.284,0.0,0.0,0.0,4.21,0.867
16571,2,16571,37,0.120,0.55,0.423,117.249,129.234,14.399,0.23,0.20,0.7,-555.0,0.172,0.28,0.542,117.538,129.435,14.410,0.21,0.23,0.9,-555.0,12.617,90629.859,930.927,12.598,90626.828,930.562,16571,0.423,930.562,-5280057.0,-3.389,2.113,0.0,0.0,0.0,4.2,0.263
16710,2,16710,139,0.116,0.71,0.414,116.997,129.295,14.408,0.22,0.21,0.7,-555.0,0.50,0.129,0.391,116.208,129.289,14.104,0.22,0.20,0.5,-555.0,12.609,90628.703,930.953,12.593,90624.765,931.370,16710,0.414,931.370,-5338316.0,5.819,1.851,0.0,0.0,0.0,4.8,0.257
16977,2,16977,267,0.120,0.70,0.391,116.957,129.400,14.425,0.23,0.19,0.7,-555.0,0.100,0.50,0.334,117.129,129.523,14.440,0.22,0.16,0.4,-555.0,12.586,90628.703,930.916,12.515,90631.882,930.943,16977,0.391,930.943,-5446006.500,-1.601,2.50,0.0,0.0,0.0,4.15,0.243
17021,2,17021,44,0.116,0.64,0.387,117.88,129.222,14.463,0.22,0.20,0.6,-555.0,0.129,0.43,0.399,117.480,128.661,14.586,0.18,0.23,0.2,-555.0,12.564,90630.609,930.907,12.501,90632.625,930.971,17021,0.387,930.971,-5463153.0,0.638,1.981,0.0,0.0,0.0,4.15,0.240
17057,2,17057,36,0.126,0.87,0.414,117.147,129.231,14.402,0.21,0.20,0.5,-555.0,0.179,0.186,0.406,117.377,129.245,14.469,0.23,0.16,0.6,-555.0,12.545,90628.796,931.30,12.520,90627.929,931.303,17057,0.414,931.303,-5477595.500,9.218,1.783,0.0,0.0,0.0,4.15,0.257
17100,2,17100,43,0.106,0.90,0.394,117.164,129.216,14.367,0.22,0.20,0.5,-555.0,0.71,0.43,0.442,117.626,129.362,14.235,0.26,0.23,0.6,-555.0,12.534,90628.539,931.120,12.538,90625.507,931.14,17100,0.394,931.14,-5495000.500,-6.719,2.252,0.0,0.0,0.0,4.15,0.245
17136,2,17136,36,0.116,0.77,0.407,117.345,129.187,14.460,0.22,0.20,0.5,-555.0,0.100,0.64,0.456,117.114,129.143,14.571,0.20,0.21,0.6,-555.0,12.523,90629.742,930.991,12.543,90630.781,930.725,17136,0.407,930.725,-5509443.0,-8.10,2.316,0.0,0.0,0.0,4.21,0.253
17179,2,17179,43,0.101,0.104,0.407,117.357,129.184,14.399,0.22,0.21,0.5,-555.0,0.28,0.186,0.334,117.187,129.508,14.133,0.24,0.21,0.6,-555.0,12.532,90630.398,930.992,12.557,90635.164,930.947,17179,0.407,930.947,-5526971.500,5.158,1.865,0.0,0.0,0.0,4.21,0.253
17215,2,17215,36,0.81,0.104,0.393,117.351,129.359,14.267,0.24,0.19,0.5,-555.0,0.28,0.43,0.327,117.451,129.538,13.928,0.25,0.16,0.4,-555.0,12.547,90630.875,931.114,12.579,90635.7,931.581,17215,0.393,931.581,-5541388.0,17.612,1.654,0.0,0.0,0.0,4.21,0.244
17269,2,17269,54,0.37,0.96,0.386,117.223,129.394,14.165,0.22,0.21,0.6,-555.0,0.43,0.143,0.370,116.734,129.421,13.957,0.18,0.24,0.6,-555.0,12.560,90630.898,931.153,12.584,90628.39,931.500,17269,0.386,931.500,-5562431.500,-1.508,2.47,0.0,0.0,0.0,4.21,0.239
17305,2,17305,36,0.27,0.104,0.363,117.53,129.424,14.66,0.22,0.21,0.7,-555.0,0.21,0.86,0.327,116.778,129.508,13.738,0.22,0.22,0.12,-555.0,12.572,90631.132,931.356,12.598,90626.671,932.24,17305,0.363,932.24,-5575918.0,14.555,1.696,0.0,0.0,0.0,4.28,0.225
17350,2,17350,45,0.15,0.100,0.347,116.927,129.579,13.881,0.22,0.21,0.7,-555.0,0.43,0.43,0.377,116.486,129.918,13.650,0.23,0.23,0.6,-555.0,12.585,90630.242,931.458,12.607,90626.351,931.240,17350,0.347,931.240,-5591904.0,-17.416,3.94,0.0,0.0,0.0,4.21,0.215
17386,2,17386,36,0.35,0.89,0.373,116.799,129.561,13.890,0.22,0.21,0.7,-555.0,0.129,0.129,0.463,116.544,129.421,14.177,0.21,0.21,0.5,-555.0,12.597,90629.140,931.418,12.616,90629.679,930.745,17386,0.373,930.745,-5604873.500,-13.758,2.702,0.0,0.0,0.0,4.15,0.231
17429,2,17429,43,0.54,0.86,0.396,116.764,129.558,14.13,0.22,0.23,0.8,-555.0,0.122,0.28,0.442,117.275,129.523,14.542,0.27,0.23,0.10,-555.0,12.607,90628.507,931.355,12.630,90631.789,931.269,17429,0.396,931.269,-5621414.500,12.184,1.732,0.0,0.0,0.0,4.8,0.246
17465,2,17465,36,0.109,0.64,0.401,116.775,129.538,14.71,0.23,0.23,0.8,-555.0,0.229,0.35,0.399,116.793,129.318,14.250,0.23,0.23,0.6,-555.0,12.618,90630.101,931.150,12.639,90636.15,930.471,17465,0.401,930.471,-5635779.500,-22.165,3.984,0.0,0.0,0.0,4.15,0.249
17510,2,17510,45,0.133,0.67,0.417,116.699,129.429,14.229,0.23,0.22,0.7,-555.0,0.143,0.100,0.406,116.398,128.968,14.527,0.23,0.20,0.7,-555.0,12.631,90631.273,931.4,12.662,90632.531,931.298,17510,0.417,931.298,-5654220.500,18.381,1.644,0.0,0.0,0.0,4.2,0.259
17546,2,17546,36,0.157,0.89,0.423,116.752,129.365,14.367,0.22,0.21,0.6,-555.0,0.165,0.150,0.406,116.749,129.596,14.337,0.18,0.20,0.4,-555.0,12.643,90631.78,931.105,12.667,90625.398,931.741,17546,0.423,931.741,-5669361.0,12.307,1.730,0.0,0.0,0.0,3.996,0.263
17687,2,17687,141,0.142,0.76,0.433,116.685,129.327,14.472,0.22,0.21,0.6,-555.0,0.50,0.64,0.513,116.208,129.231,14.703,0.19,0.18,0.6,-555.0,12.657,90631.734,931.103,12.685,90632.945,930.735,17687,0.433,930.735,-5729774.0,-7.131,2.272,0.0,0.0,0.0,4.2,0.269
17723,2,17723,36,0.137,0.81,0.429,116.340,129.336,14.533,0.22,0.21,0.5,-555.0,0.100,0.57,0.420,115.551,129.567,14.849,0.25,0.24,0.5,-555.0,12.671,90631.210,930.963,12.704,90629.140,930.571,17723,0.429,930.571,-5745302.0,-4.555,2.158,0.0,0.0,0.0,3.996,0.266
17996,2,17996,273,0.110,0.84,0.462,116.258,129.368,14.568,0.21,0.20,0.5,-555.0,0.93,0.50,0.564,116.384,129.479,14.425,0.20,0.20,0.6,-555.0,12.692,90629.156,931.150,12.740,90625.757,931.405,17996,0.462,931.405,-5866975.0,3.53,1.916,0.0,0.0,0.0,4.2,0.287
18034,2,18034,38,0.114,0.76,0.460,116.188,129.523,14.507,0.21,0.21,0.5,-555.0,0.165,0.57,0.399,116.47,129.742,14.220,0.21,0.22,0.7,-555.0,12.719,90627.671,931.100,12.800,90625.117,931.50,18034,0.460,931.50,-5884511.500,-9.356,2.390,0.0,0.0,0.0,4.2,0.286
18077,2,18077,43,0.111,0.60,0.479,116.33,129.441,14.504,0.21,0.21,0.6,-555.0,0.150,0.71,0.499,115.974,129.187,14.323,0.21,0.21,0.4,-555.0,12.752,90629.85,931.54,12.832,90632.500,931.507,18077,0.479,931.507,-5904725.500,10.637,1.758,0.0,0.0,0.0,4.2,0.297
18113,2,18113,36,0.126,0.57,0.449,115.948,129.485,14.413,0.21,0.21,0.5,-555.0,0.122,0.50,0.363,115.784,129.450,14.250,0.18,0.17,0.5,-555.0,12.787,90629.601,930.908,12.860,90635.507,930.7,18113,0.449,930.7,-5921442.0,-41.673,-2.996,0.0,0.0,0.0,4.8,0.279
18156,2,18156,43,0.117,0.70,0.443,116.141,129.394,14.188,0.20,0.20,0.6,-555.0,0.57,0.122,0.391,116.515,129.114,13.724,0.21,0.19,0.6,-555.0,12.823,90629.0,931.5,12.883,90626.101,931.56,18156,0.443,931.56,-5940637.500,24.394,1.577,0.0,0.0,0.0,4.2,0.275
18192,2,18192,36,0.100,0.81,0.409,116.159,129.368,14.95,0.22,0.21,0.6,-555.0,0.7,0.107,0.391,116.471,129.348,13.957,0.27,0.25,0.9,-555.0,12.856,90629.484,931.1,12.906,90628.210,931.388,18192,0.409,931.388,-5955984.500,9.233,1.783,0.0,0.0,0.0,4.8,0.254
18235,2,18235,43,0.66,0.89,0.393,116.185,129.280,14.63,0.22,0.21,0.6,-555.0,0.7,0.93,0.320,116.179,129.304,14.60,0.25,0.24,0.6,-555.0,12.879,90630.39,931.9,12.915,90627.890,931.85,18235,0.393,931.85,-5973235.500,-7.40,2.267,0.0,0.0,0.0,4.2,0.244
18284,2,18284,49,0.55,0.94,0.387,116.305,129.289,14.57,0.21,0.21,0.6,-555.0,0.100,0.100,0.470,116.574,129.231,14.294,0.16,0.20,0.2,-555.0,12.899,90628.664,930.949,12.929,90625.617,931.211,18284,0.387,931.211,-5992366.0,2.560,1.928,0.0,0.0,0.0,4.15,0.240
18327,2,18327,43,0.43,0.99,0.388,116.322,129.216,14.25,0.22,0.22,0.5,-555.0,0.57,0.71,0.370,115.872,129.85,14.89,0.19,0.24,0.4,-555.0,12.912,90626.648,931.273,12.929,90625.453,931.625,18327,0.388,931.625,-6009061.0,9.637,1.775,0.0,0.0,0.0,4.2,0.241
18364,2,18364,37,0.70,0.100,0.426,116.284,129.310,14.95,0.23,0.22,0.5,-555.0,0.193,0.129,0.578,116.325,129.581,14.74,0.26,0.20,0.4,-555.0,12.921,90627.859,931.332,12.929,90632.109,931.351,18364,0.426,931.351,-6024144.0,-7.406,2.285,0.0,0.0,0.0,4.15,0.264
18407,2,18407,43,0.91,0.87,0.426,116.252,129.295,14.39,0.22,0.22,0.4,-555.0,0.114,0.43,0.391,116.311,129.275,13.680,0.22,0.21,0.4,-555.0,12.929,90629.62,931.303,12.943,90634.218,931.240,18407,0.426,931.240,-6042475.0,-2.586,2.84,0.0,0.0,0.0,4.15,0.264
18443,2,18443,36,0.134,0.91,0.443,116.349,129.389,14.95,0.21,0.21,0.4,-555.0,0.208,0.114,0.406,116.661,129.772,14.337,0.22,0.22,0.7,-555.0,12.935,90628.687,931.314,12.947,90626.23,931.144,18443,0.443,931.144,-6058132.0,-2.675,2.87,0.0,0.0,0.0,4.15,0.275
18488,2,18488,45,0.132,0.90,0.433,116.378,129.421,14.54,0.22,0.20,0.5,-555.0,0.86,0.93,0.420,116.720,129.391,14.89,0.18,0.15,0.7,-555.0,12.942,90629.671,931.368,12.961,90630.570,931.477,18488,0.433,931.477,-6077865.0,7.412,1.818,0.0,0.0,0.0,4.21,0.269
18524,2,18524,36,0.139,0.87,0.457,116.515,129.473,14.112,0.21,0.20,0.5,-555.0,0.93,0.57,0.492,116.559,129.348,14.381,0.18,0.22,0.2,-555.0,12.950,90631.85,931.277,12.970,90632.515,931.174,18524,0.457,931.174,-6093910.0,-8.424,2.338,0.0,0.0,0.0,4.21,0.284
18561,2,18561,37,0.99,0.73,0.406,116.395,129.362,14.212,0.20,0.20,0.5,-555.0,0.7,0.57,0.320,115.726,129.26,14.571,0.21,0.19,0.4,-555.0,12.961,90630.953,931.184,12.984,90631.460,930.886,18561,0.406,930.886,-6109896.0,-7.794,2.305,0.0,0.0,0.0,4.15,0.252
18702,2,18702,141,0.126,0.77,0.406,116.325,129.444,14.302,0.20,0.20,0.4,-555.0,0.251,0.64,0.391,115.960,129.684,14.133,0.20,0.21,0.2,-555.0,12.968,90629.656,931.13,12.979,90627.726,930.383,18702,0.406,930.383,-6167171.0,-3.563,2.119,0.0,0.0,0.0,4.15,0.252
18738,2,18738,36,0.116,0.66,0.413,116.115,129.421,14.370,0.20,0.20,0.3,-555.0,0.157,0.57,0.442,115.609,129.655,14.674,0.24,0.25,0.0,-555.0,12.968,90630.835,930.971,12.947,90631.945,930.937,18738,0.413,930.937,-6181923.500,15.394,1.684,0.0,0.0,0.0,4.8,0.256
19011,2,19011,273,0.167,0.15,0.406,116.147,129.438,14.428,0.23,0.23,0.3,-555.0,0.344,0.157,0.384,116.881,129.479,14.381,0.32,0.29,0.7,-555.0,12.968,90630.421,930.946,12.961,90628.460,931.351,19011,0.406,931.351,-6293798.0,1.516,1.956,0.0,0.0,0.0,4.8,0.252
19048,2,19048,37,0.193,0.14,0.388,116.214,129.456,14.478,0.21,0.24,0.3,-555.0,0.222,0.50,0.406,116.895,129.435,14.630,0.10,0.25,0.4,-555.0,12.967,90629.546,930.886,12.961,90628.132,930.871,19048,0.388,930.871,-6308509.0,-12.985,2.638,0.0,0.0,0.0,4.15,0.241
19091,2,19091,43,0.226,0.44,0.411,116.489,129.567,14.536,0.22,0.24,0.3,-555.0,0.157,0.208,0.434,117.100,129.581,14.864,0.22,0.21,0.2,-555.0,12.967,90627.906,930.869,12.989,90623.265,930.804,19091,0.411,930.804,-6325729.0,-1.561,2.49,0.0,0.0,0.0,4.21,0.256
19127,2,19127,36,0.183,0.37,0.436,116.772,129.462,14.650,0.23,0.24,0.3,-555.0,0.35,0.28,0.513,117.377,129.158,14.703,0.24,0.20,0.1,-555.0,12.970,90628.765,930.959,12.993,90632.31,930.833,19127,0.436,930.833,-6340998.500,0.825,1.975,0.0,0.0,0.0,4.21,0.271
19170,2,19170,43,0.178,0.58,0.420,117.3,129.429,14.595,0.21,0.23,0.3,-555.0,0.129,0.165,0.363,116.764,129.494,14.396,0.14,0.22,0.1,-555.0,12.984,90628.476,931.46,13.16,90630.484,931.373,19170,0.420,931.373,-6359422.500,12.554,1.726,0.0,0.0,0.0,4.21,0.261
19206,2,19206,36,0.116,0.120,0.446,116.997,129.494,14.489,0.18,0.22,0.2,-555.0,0.35,0.150,0.513,116.851,129.801,13.855,0.17,0.25,0.3,-555.0,13.0,90629.726,931.95,13.39,90634.703,931.596,19206,0.446,931.596,-6375028.0,6.176,1.843,0.0,0.0,0.0,4.21,0.277
19249,2,19249,43,0.70,0.139,0.427,116.983,129.567,14.463,0.21,0.22,0.3,-555.0,0.7,0.143,0.312,116.822,129.801,14.498,0.30,0.21,0.6,-555.0,13.18,90628.734,931.183,13.53,90623.187,931.307,19249,0.427,931.307,-6393822.0,-6.706,2.251,0.0,0.0,0.0,4.21,0.265
19298,2,19298,49,0.70,0.99,0.400,116.769,129.552,14.375,0.24,0.22,0.4,-555.0,0.157,0.7,0.298,116.33,129.508,14.425,0.33,0.21,0.7,-555.0,13.33,90629.843,931.407,13.62,90628.781,931.927,19298,0.400,931.927,-6414113.0,12.659,1.724,0.0,0.0,0.0,4.21,0.248
19341,2,19341,43,0.87,0.104,0.393,116.597,129.599,14.317,0.22,0.22,0.5,-555.0,0.122,0.57,0.477,116.515,129.391,14.410,0.15,0.21,0.7,-555.0,13.47,90629.398,931.428,13.62,90629.835,930.937,19341,0.393,930.937,-6431178.500,-23.25,4.233,0.0,0.0,0.0,4.21,0.244
19378,2,19378,37,0.93,0.97,0.414,116.650,129.546,14.355,0.23,0.22,0.5,-555.0,0.157,0.129,0.470,117.27,129.231,14.586,0.18,0.21,0.3,-555.0,13.58,90628.578,931.380,13.71,90626.351,931.130,19378,0.414,931.130,-6446128.500,5.206,1.864,0.0,0.0,0.0,4.15,0.257
19421,2,19421,43,0.96,0.90,0.409,116.667,129.418,14.410,0.24,0.21,0.6,-555.0,0.50,0.114,0.485,116.939,129.158,14.133,0.22,0.22,0.5,-555.0,13.64,90627.359,931.203,13.71,90628.617,930.716,19421,0.409,930.716,-6463842.500,-9.637,2.406,0.0,0.0,0.0,4.15,0.254
19457,2,19457,36,0.109,0.77,0.421,116.670,129.315,14.399,0.23,0.22,0.5,-555.0,0.57,0.78,0.377,116.837,129.289,14.440,0.24,0.24,0.3,-555.0,13.69,90629.109,931.130,13.76,90631.945,930.937,19457,0.421,930.937,-6478802.0,6.161,1.843,0.0,0.0,0.0,4.15,0.262
19502,2,19502,45,0.71,0.103,0.424,116.693,129.152,14.340,0.19,0.23,0.4,-555.0,0.28,0.136,0.312,116.150,128.690,14.133,0.17,0.25,0.2,-555.0,13.71,90629.953,930.909,13.76,90633.0,930.826,19502,0.424,930.826,-6497856.500,-2.469,2.80,0.0,0.0,0.0,4.2,0.264
19538,2,19538,36,0.470,4.719,-1.827,116.799,129.61,14.361,0.20,0.35,0.17,-555.0,2.117,24.55,-7.491,117.41,128.938,14.513,0.18,0.80,0.73,-555.0,13.74,90629.7,931.31,13.76,90625.132,931.543,19538,-1.827,931.543,-6538400.0,19.919,1.625,0.0,0.0,0.0,3.996,-1.135
19679,2,19679,141,0.470,4.713,-1.810,116.708,129.87,14.165,0.19,0.34,0.17,-555.0,0.157,0.157,0.384,116.574,129.362,13.607,0.15,0.19,0.1,-555.0,13.74,90629.515,930.962,13.71,90628.867,930.790,19679,-1.810,930.790,-6794869.0,-5.343,2.190,0.0,0.0,0.0,3.996,-1.125
19715,2,19715,36,0.489,4.727,-1.781,116.512,129.26,14.209,0.19,0.34,0.17,-555.0,0.143,0.43,0.341,115.960,128.851,14.352,0.20,0.21,0.4,-555.0,13.58,90629.765,930.980,12.993,90629.921,930.804,19715,-1.781,930.804,-6859523.500,0.383,1.988,0.0,0.0,0.0,4.2,-1.107
19857,2,19857,142,0.506,4.739,-1.800,116.416,128.985,14.112,0.18,0.34,0.17,-555.0,0.143,0.21,0.470,116.354,129.85,13.957,0.22,0.22,0.4,-555.0,13.43,90629.320,930.958,12.998,90629.671,930.826,19857,-1.800,930.826,-7113836.0,0.159,1.995,0.0,0.0,0.0,4.2,-1.118
20025,2,20025,168,0.544,4.739,-1.823,116.562,129.47,14.115,0.20,0.32,0.17,-555.0,0.157,0.136,0.427,116.881,128.997,14.147,0.23,0.18,0.2,-555.0,13.18,90627.453,930.924,12.952,90623.664,930.657,20025,-1.823,930.657,-7418210.0,-1.5,2.31,0.0,0.0,0.0,4.8,-1.133
20069,2,20069,44,0.133,0.83,0.413,116.278,129.70,14.51,0.21,0.21,0.3,-555.0,0.64,0.57,0.442,115.624,129.55,14.191,0.26,0.22,0.5,-555.0,12.983,90629.164,930.829,12.901,90633.648,931.71,20069,0.413,931.71,-7467415.500,9.393,1.780,0.0,0.0,0.0,4.2,0.256
20105,2,20105,36,0.97,0.57,0.419,116.197,128.991,14.209,0.22,0.21,0.4,-555.0,0.21,0.28,0.413,116.164,128.968,14.396,0.18,0.21,0.6,-555.0,12.951,90630.539,930.828,12.910,90635.757,930.783,20105,0.419,930.783,-7482401.0,-7.995,2.315,0.0,0.0,0.0,4.8,0.260
20147,2,20147,42,0.74,0.66,0.444,116.293,129.111,14.212,0.22,0.21,0.4,-555.0,0.28,0.86,0.470,116.442,129.450,14.367,0.20,0.20,0.5,-555.0,12.936,90631.250,930.926,12.920,90633.484,931.292,20147,0.444,931.292,-7500547.0,12.121,1.733,0.0,0.0,0.0,4.2,0.276
20184,2,20184,37,0.55,0.77,0.429,116.337,129.90,14.235,0.23,0.21,0.5,-555.0,0.50,0.78,0.391,116.574,128.982,14.74,0.29,0.23,0.8,-555.0,12.920,90632.460,930.997,12.915,90635.757,931.182,20184,0.429,931.182,-7516719.0,-2.975,2.98,0.0,0.0,0.0,4.2,0.266
20225,2,20225,41,0.40,0.53,0.442,116.150,129.73,14.264,0.23,0.22,0.6,-555.0,0.78,0.14,0.492,115.945,128.909,14.294,0.21,0.22,0.6,-555.0,12.913,90635.117,931.41,12.920,90636.968,930.878,20225,0.442,930.878,-7534580.0,-7.395,2.285,0.0,0.0,0.0,4.15,0.274
20261,2,20261,36,0.35,0.67,0.432,116.375,129.149,14.311,0.21,0.22,0.6,-555.0,0.43,0.129,0.391,116.749,129.435,14.425,0.18,0.23,0.4,-555.0,12.915,90636.898,931.105,12.910,90642.570,931.388,20261,0.432,931.388,-7550314.500,14.156,1.701,0.0,0.0,0.0,4.2,0.268
20304,2,20304,43,0.63,0.81,0.440,116.506,129.310,14.282,0.23,0.22,0.5,-555.0,0.114,0.100,0.456,116.822,129.772,14.250,0.25,0.24,0.3,-555.0,12.916,90635.125,931.22,12.915,90626.835,930.368,20304,0.440,930.368,-7569078.0,-23.715,4.465,0.0,0.0,0.0,4.2,0.273
20340,2,20340,36,0.58,0.67,0.430,116.521,129.359,14.311,0.24,0.23,0.5,-555.0,0.7,0.14,0.420,116.515,129.698,14.513,0.24,0.22,0.3,-555.0,12.915,90634.453,930.901,12.915,90630.156,930.686,20340,0.430,930.686,-7584761.0,8.834,1.790,0.0,0.0,0.0,4.2,0.267
20382,2,20382,42,0.57,0.67,0.442,116.509,129.400,14.329,0.20,0.23,0.5,-555.0,0.43,0.78,0.449,116.515,129.187,14.162,0.13,0.23,0.8,-555.0,12.917,90633.796,930.840,12.924,90632.429,930.878,20382,0.442,930.878,-7603088.0,4.573,1.879,0.0,0.0,0.0,4.2,0.274
20530,2,20530,148,0.53,0.90,0.437,116.650,129.543,14.273,0.19,0.23,0.5,-555.0,0.57,0.129,0.470,116.647,129.625,14.16,0.12,0.22,0.9,-555.0,12.918,90632.15,930.794,12.924,90628.117,930.651,20530,0.437,930.651,-7668200.0,-1.539,2.48,0.0,0.0,0.0,4.15,0.272
20673,2,20673,143,0.412,0.94,0.444,116.489,129.538,14.153,0.18,0.23,0.5,-555.0,1.837,0.150,0.427,115.945,129.406,13.826,0.18,0.23,0.4,-555.0,12.903,90630.593,930.682,12.837,90635.414,930.828,20673,0.444,930.828,-7731317.500,1.239,1.964,0.0,0.0,0.0,4.15,0.276
20709,2,20709,36,0.399,0.94,0.450,116.430,129.526,14.174,0.18,0.23,0.6,-555.0,0.50,0.100,0.485,116.530,129.713,14.352,0.25,0.27,0.7,-555.0,12.886,90632.242,930.802,12.828,90635.93,930.968,20709,0.450,930.968,-7747440.0,3.897,1.895,0.0,0.0,0.0,4.8,0.280
20856,2,20856,147,0.430,0.103,0.446,116.299,129.427,14.109,0.19,0.23,0.6,-555.0,0.165,0.57,0.399,115.857,129.201,14.191,0.27,0.21,0.2,-555.0,12.872,90633.828,930.779,12.846,90638.101,930.569,20856,0.446,930.569,-7813378.500,-2.717,2.88,0.0,0.0,0.0,4.8,0.277
20892,2,20892,36,0.452,0.116,0.437,116.229,129.450,14.165,0.20,0.23,0.6,-555.0,0.150,0.143,0.406,116.164,129.304,14.440,0.19,0.21,0.7,-555.0,12.859,90633.296,930.665,12.860,90629.750,930.309,20892,0.437,930.309,-7829294.0,-7.200,2.275,0.0,0.0,0.0,4.15,0.272
20963,2,20963,71,0.457,0.106,0.411,116.121,129.365,14.168,0.22,0.22,0.5,-555.0,0.86,0.78,0.341,116.106,129.201,14.30,0.22,0.20,0.4,-555.0,12.852,90634.890,930.688,12.887,90636.78,930.767,20963,0.411,930.767,-7859460.0,6.449,1.837,0.0,0.0,0.0,4.15,0.256
20999,2,20999,36,0.94,0.89,0.410,116.176,129.470,14.168,0.23,0.23,0.6,-555.0,0.21,0.64,0.420,116.223,129.932,13.826,0.23,0.26,0.8,-555.0,12.865,90634.500,930.723,12.906,90633.484,931.4,20999,0.410,931.4,-7874264.500,6.573,1.835,0.0,0.0,0.0,4.28,0.255
21043,2,21043,44,0.100,0.83,0.383,116.191,129.450,14.80,0.22,0.23,0.7,-555.0,0.78,0.71,0.348,116.603,129.611,13.914,0.21,0.25,0.13,-555.0,12.887,90635.687,930.593,12.938,90641.31,930.317,21043,0.383,930.317,-7891727.0,-15.622,2.882,0.0,0.0,0.0,4.28,0.238
21079,2,21079,36,0.84,0.81,0.376,116.284,129.535,14.109,0.21,0.22,0.8,-555.0,0.86,0.50,0.363,116.325,129.625,14.337,0.21,0.19,0.9,-555.0,12.910,90634.578,930.593,12.956,90632.515,930.567,21079,0.376,930.567,-7905394.500,6.956,1.827,0.0,0.0,0.0,4.28,0.233
21122,2,21122,43,0.239,-2.189,0.637,116.416,129.526,14.177,0.17,0.33,0.12,-555.0,-1.471,-10.681,4.661,116.822,129.260,14.776,0.0,0.76,0.24,-555.0,12.934,90635.296,930.548,12.984,90633.406,930.87,21122,0.637,930.87,-7899772.500,-11.173,2.504,0.0,0.0,0.0,4.28,0.396
21158,2,21158,36,0.234,-2.202,0.601,116.515,129.561,14.136,0.17,0.35,0.11,-555.0,0.114,0.143,0.521,116.603,129.377,13.826,0.21,0.27,0.1,-555.0,12.957,90634.914,930.542,13.2,90634.140,930.738,21158,0.601,930.738,-7877467.0,18.85,1.648,0.0,0.0,0.0,4.28,0.373
21201,2,21201,43,0.234,-2.208,0.598,116.582,129.497,14.282,0.17,0.34,0.11,-555.0,0.21,0.93,0.434,116.559,129.611,14.557,0.24,0.24,0.7,-555.0,12.980,90634.984,930.555,13.21,90633.812,931.70,21201,0.598,931.70,-7851658.0,7.730,1.811,0.0,0.0,0.0,4.21,0.372
21237,2,21237,36,0.221,-2.209,0.588,116.448,129.503,14.460,0.17,0.34,0.9,-555.0,0.143,0.78,0.399,115.931,129.640,14.805,0.19,0.21,0.4,-555.0,13.1,90633.23,930.690,13.44,90631.218,930.989,21237,0.588,930.989,-7830283.0,-2.263,2.72,0.0,0.0,0.0,4.21,0.365
21280,2,21280,43,0.215,-2.221,0.561,116.395,129.514,14.519,0.18,0.34,0.8,-555.0,0.114,0.107,0.499,116.62,129.684,14.630,0.25,0.23,0.5,-555.0,13.21,90633.390,930.697,13.53,90634.382,930.604,21280,0.561,930.604,-7805554.0,-8.932,2.366,0.0,0.0,0.0,4.21,0.348
21317,2,21317,37,0.84,0.96,0.452,116.208,129.567,14.448,0.22,0.24,0.4,-555.0,0.28,0.57,0.406,115.887,129.523,14.425,0.22,0.24,0.4,-555.0,13.38,90631.734,930.871,13.71,90625.132,930.952,21317,0.452,930.952,-7803532.0,9.399,1.780,0.0,0.0,0.0,4.8,0.281
21457,2,21457,140,0.291,0.67,0.444,116.21,129.476,14.533,0.22,0.22,0.5,-555.0,-1.765,0.0,0.485,115.667,128.924,14.250,0.21,0.21,0.3,-555.0,13.56,90630.421,930.949,13.90,90627.562,931.130,21457,0.444,931.130,-7866330.500,1.269,1.963,0.0,0.0,0.0,4.15,0.276
21711,2,21711,254,0.285,0.63,0.439,115.945,129.409,14.469,0.22,0.23,0.5,-555.0,0.50,0.71,0.406,116.179,129.275,14.235,0.23,0.26,0.7,-555.0,13.67,90630.46,930.983,13.76,90631.945,931.240,21711,0.439,931.240,-7978623.500,0.433,1.987,0.0,0.0,0.0,4.2,0.272
21756,2,21756,45,0.284,0.51,0.433,116.33,129.324,14.291,0.23,0.22,0.4,-555.0,0.150,0.21,0.370,116.369,129.216,13.914,0.22,0.19,0.0,-555.0,13.76,90631.914,930.959,13.90,90640.546,930.871,21756,0.433,930.871,-7998259.500,-8.205,2.326,0.0,0.0,0.0,3.996,0.269
21792,2,21792,36,0.297,0.37,0.410,116.94,129.289,14.238,0.22,0.22,0.4,-555.0,0.50,0.35,0.384,116.369,129.508,14.367,0.22,0.20,0.7,-555.0,13.90,90631.921,930.900,13.122,90634.460,930.309,21792,0.410,930.309,-8013451.500,-15.608,2.880,0.0,0.0,0.0,4.2,0.255
21835,2,21835,43,0.285,0.54,0.416,116.214,129.216,14.200,0.21,0.21,0.5,-555.0,0.86,0.143,0.434,116.486,129.158,14.235,0.18,0.18,0.6,-555.0,13.104,90634.851,930.819,13.140,90639.734,930.546,21835,0.416,930.546,-8031227.0,5.515,1.858,0.0,0.0,0.0,4.8,0.258
21871,2,21871,36,0.87,0.66,0.388,116.381,129.351,14.171,0.22,0.21,0.5,-555.0,0.100,0.57,0.348,116.501,129.596,14.104,0.24,0.20,0.4,-555.0,13.117,90635.851,930.807,13.159,90632.585,931.72,21871,0.388,931.72,-8045721.0,14.599,1.695,0.0,0.0,0.0,4.2,0.241
21914,2,21914,43,0.86,0.58,0.391,116.457,129.397,14.159,0.21,0.20,0.4,-555.0,0.43,0.35,0.420,116.559,129.508,14.177,0.17,0.23,0.1,-555.0,13.138,90637.273,930.531,13.177,90639.78,929.858,21914,0.391,929.858,-8062509.0,-28.219,7.518,0.0,0.0,0.0,4.8,0.243
21950,2,21950,36,0.58,0.84,0.404,116.463,129.494,14.200,0.20,0.21,0.5,-555.0,0.14,0.150,0.434,116.398,129.698,14.118,0.18,0.24,0.7,-555.0,13.157,90638.296,930.417,13.186,90645.570,930.302,21950,0.404,930.302,-8076848.0,12.335,1.729,0.0,0.0,0.0,4.8,0.251
21993,2,21993,43,0.71,0.80,0.411,116.395,129.415,14.168,0.20,0.22,0.5,-555.0,0.114,0.14,0.420,116.33,129.114,14.206,0.25,0.21,0.4,-555.0,13.172,90640.960,930.336,13.200,90647.843,929.903,21993,0.411,929.903,-8094407.500,-9.278,2.385,0.0,0.0,0.0,4.15,0.256
22058,2,22058,65,0.86,0.67,0.420,116.287,129.488,14.147,0.21,0.23,0.4,-555.0,0.157,0.78,0.477,115.945,129.523,14.133,0.22,0.24,0.5,-555.0,13.188,90643.921,929.921,13.218,90654.492,928.469,22058,0.420,928.469,-8121464.0,-22.69,3.959,0.0,0.0,0.0,4.2,0.261
22101,2,22101,43,0.81,0.70,0.452,116.243,129.465,14.253,0.20,0.23,0.4,-555.0,0.78,0.71,0.506,116.281,129.479,14.630,0.18,0.21,0.2,-555.0,13.201,90648.960,929.442,13.223,90657.820,928.676,22101,0.452,928.676,-8140227.500,4.811,1.873,0.0,0.0,0.0,4.8,0.281
22137,2,22137,36,0.84,0.84,0.466,116.144,129.415,14.317,0.20,0.23,0.4,-555.0,0.57,0.107,0.492,116.62,129.260,14.498,0.18,0.23,0.4,-555.0,13.211,90652.890,928.943,13.228,90658.710,927.367,22137,0.466,927.367,-8156763.500,-36.358,-10.19,0.0,0.0,0.0,4.8,0.289
22180,2,22180,43,0.81,0.87,0.459,116.88,129.245,14.402,0.21,0.23,0.3,-555.0,0.0,0.165,0.399,116.121,128.851,14.542,0.24,0.23,0.3,-555.0,13.222,90657.968,928.337,13.241,90670.968,927.272,22180,0.459,927.272,-8176669.0,-2.214,2.71,0.0,0.0,0.0,4.15,0.285
22216,2,22216,36,0.64,0.97,0.452,116.235,129.219,14.399,0.22,0.22,0.3,-555.0,0.28,0.64,0.384,116.764,128.982,14.191,0.27,0.20,0.3,-555.0,13.231,90663.468,927.607,13.246,90675.351,926.251,22216,0.452,926.251,-8193075.500,-28.361,7.703,0.0,0.0,0.0,4.15,0.281
22259,2,22259,43,0.45,0.106,0.430,116.264,129.41,14.437,0.21,0.23,0.3,-555.0,0.64,0.122,0.370,116.91,128.631,14.323,0.20,0.27,0.2,-555.0,13.240,90668.546,926.705,13.260,90679.898,923.959,22259,0.430,923.959,-8212055.0,-53.302,0.669,0.0,0.0,0.0,4.8,0.267
22295,2,22295,36,0.48,0.142,0.407,116.322,128.903,14.244,0.22,0.22,0.3,-555.0,0.93,0.251,0.391,116.574,128.792,13.665,0.22,0.19,0.4,-555.0,13.236,90776.562,916.764,13.205,91197.890,878.973,22295,0.407,878.973,-8227143.500,-1249.596,0.972,0.0,0.0,0.0,3.996,0.253
22435,2,22435,140,0.53,0.150,0.406,116.316,128.933,14.168,0.24,0.23,0.3,-555.0,0.78,0.150,0.485,116.33,129.406,14.118,0.27,0.26,0.3,-555.0,13.231,90886.914,907.60,13.205,91210.468,878.848,22435,0.406,878.848,-8284113.0,0.891,2.27,0.0,0.0,0.0,4.2,0.252
22471,2,22471,36,0.51,0.134,0.419,116.375,128.965,14.80,0.25,0.23,0.4,-555.0,0.7,0.86,0.463,116.413,129.11,14.104,0.30,0.23,0.8,-555.0,13.207,90992.789,897.436,13.122,91200.320,879.151,22471,0.419,879.151,-8298969.0,8.395,1.798,0.0,0.0,0.0,4.2,0.260
22625,2,22625,154,0.71,0.127,0.427,116.293,129.114,14.101,0.24,0.24,0.4,-555.0,0.129,0.28,0.427,116.354,129.728,14.294,0.24,0.22,0.4,-555.0,13.182,91097.632,888.11,13.117,91199.562,879.124,22625,0.427,879.124,-8364178.0,0.173,2.5,0.0,0.0,0.0,4.2,0.265
22795,2,22795,170,0.74,0.111,0.436,116.357,129.307,13.987,0.24,0.23,0.5,-555.0,0.78,0.43,0.413,116.413,129.596,13.753,0.15,0.22,0.3,-555.0,13.135,91202.523,879.162,13.25,91204.398,879.715,22795,0.436,879.715,-8437626.0,3.475,1.905,0.0,0.0,0.0,4.15,0.271
22838,2,22838,43,0.68,0.76,0.447,116.436,129.453,14.16,0.24,0.23,0.5,-555.0,0.64,0.71,0.449,116.968,129.523,13.811,0.23,0.20,0.7,-555.0,13.84,91202.890,881.259,12.952,91199.703,889.456,22838,0.447,889.456,-8456636.0,226.542,1.128,0.0,0.0,0.0,4.15,0.278
22874,2,22874,36,0.76,0.73,0.439,116.506,129.476,14.48,0.23,0.21,0.6,-555.0,0.114,0.136,0.442,116.384,129.523,14.279,0.21,0.19,0.6,-555.0,13.47,91097.132,890.732,13.21,90681.687,926.214,22874,0.439,926.214,-8472603.0,1021.52,1.31,0.0,0.0,0.0,4.15,0.272
22917,2,22917,43,0.100,0.68,0.426,116.483,129.579,13.978,0.20,0.21,0.6,-555.0,0.114,0.64,0.399,116.296,129.523,13.753,0.18,0.20,0.9,-555.0,13.30,90991.320,900.393,13.35,90671.218,927.455,22917,0.426,927.455,-8491212.0,28.862,1.535,0.0,0.0,0.0,4.28,0.264
22953,2,22953,36,0.89,0.86,0.424,116.503,129.561,13.949,0.20,0.20,0.6,-555.0,0.71,0.114,0.420,116.457,129.640,14.147,0.21,0.21,0.6,-555.0,13.16,90883.765,910.272,13.48,90661.812,928.519,22953,0.424,928.519,-8506533.0,29.573,1.529,0.0,0.0,0.0,4.21,0.264
22996,2,22996,43,0.89,0.83,0.420,116.474,129.479,14.57,0.22,0.21,0.7,-555.0,0.78,0.28,0.391,116.267,129.187,14.294,0.26,0.25,0.7,-555.0,13.22,90773.812,920.204,13.53,90654.671,929.377,22996,0.420,929.377,-8524710.0,19.948,1.625,0.0,0.0,0.0,4.21,0.261
23032,2,23032,36,0.84,0.91,0.437,116.232,129.365,14.156,0.21,0.22,0.6,-555.0,0.43,0.114,0.535,115.755,128.953,14.308,0.20,0.23,0.5,-555.0,13.47,90663.835,928.236,13.81,90649.796,929.613,23032,0.437,929.613,-8540160.0,6.557,1.835,0.0,0.0,0.0,4.21,0.272
23075,2,23075,43,0.83,0.78,0.436,116.261,129.272,14.206,0.22,0.22,0.6,-555.0,0.107,0.71,0.434,116.530,129.55,14.527,0.23,0.18,0.4,-555.0,13.63,90655.367,929.129,13.99,90639.328,930.679,23075,0.436,930.679,-8558954.0,24.776,1.573,0.0,0.0,0.0,4.21,0.271
23111,2,23111,36,0.71,0.89,0.439,116.389,129.266,14.291,0.23,0.23,0.6,-555.0,0.57,0.114,0.413,116.939,129.494,14.177,0.26,0.25,0.7,-555.0,13.81,90647.312,929.884,13.122,90630.968,931.233,23111,0.439,931.233,-8574715.0,15.409,1.683,0.0,0.0,0.0,4.21,0.272
23154,2,23154,43,0.77,0.70,0.436,116.284,129.137,14.337,0.23,0.22,0.5,-555.0,0.100,0.21,0.406,115.931,128.997,14.381,0.21,0.17,0.1,-555.0,13.99,90642.210,930.287,13.140,90636.242,930.531,23154,0.436,930.531,-8593540.0,-16.330,2.960,0.0,0.0,0.0,4.21,0.271
23301,2,23301,147,0.77,0.89,0.440,116.366,129.143,14.305,0.23,0.21,0.4,-555.0,0.78,0.122,0.413,116.676,129.216,14.133,0.24,0.20,0.2,-555.0,13.120,90638.312,930.521,13.159,90635.187,930.546,23301,0.440,930.546,-8658001.0,0.100,1.996,0.0,0.0,0.0,3.996,0.273
23444,2,23444,143,0.81,0.84,0.410,116.574,129.172,14.299,0.23,0.21,0.4,-555.0,0.64,0.93,0.384,116.793,129.99,14.279,0.21,0.22,0.5,-555.0,13.137,90635.226,930.760,13.163,90634.367,930.813,23444,0.410,930.813,-8718860.0,1.866,1.946,0.0,0.0,0.0,4.21,0.255
23480,2,23480,36,0.70,0.89,0.409,116.594,129.199,14.223,0.23,0.21,0.4,-555.0,0.50,0.93,0.427,116.632,129.187,14.147,0.22,0.23,0.7,-555.0,13.159,90632.796,930.758,13.209,90627.218,930.666,23480,0.409,930.666,-8733613.0,-4.96,2.140,0.0,0.0,0.0,3.996,0.254
23628,2,23628,148,0.90,0.78,0.404,116.541,129.175,14.326,0.22,0.21,0.4,-555.0,0.157,0.64,0.391,116.676,129.377,14.688,0.21,0.21,0.6,-555.0,13.182,90632.406,930.810,13.237,90629.0,931.494,23628,0.404,931.494,-8793838.0,5.599,1.856,0.0,0.0,0.0,3.996,0.251
23665,2,23665,37,0.96,0.109,0.409,116.790,129.225,14.334,0.21,0.23,0.5,-555.0,0.129,0.172,0.427,117.173,129.245,14.425,0.19,0.27,0.5,-555.0,13.205,90631.796,930.785,13.255,90633.218,930.407,23665,0.409,930.407,-8808894.0,-29.390,9.455,0.0,0.0,0.0,4.2,0.254
23737,2,23737,72,0.103,0.106,0.403,116.769,129.283,14.364,0.21,0.23,0.5,-555.0,0.114,0.107,0.384,116.574,129.508,14.279,0.21,0.21,0.2,-555.0,13.226,90631.132,930.967,13.264,90631.835,931.458,23737,0.403,931.458,-8838141.0,14.599,1.695,0.0,0.0,0.0,4.2,0.250
23774,2,23774,37,0.104,0.103,0.410,116.892,129.275,14.352,0.21,0.24,0.5,-555.0,0.71,0.78,0.420,117.407,129.55,14.220,0.23,0.26,0.4,-555.0,13.249,90631.500,930.915,13.278,90636.218,930.548,23774,0.410,930.548,-8853197.0,-24.587,4.811,0.0,0.0,0.0,4.2,0.255
23817,2,23817,43,0.106,0.104,0.406,116.974,129.283,14.440,0.21,0.23,0.5,-555.0,0.57,0.100,0.406,117.41,129.231,14.586,0.22,0.20,0.5,-555.0,13.267,90632.570,930.955,13.301,90632.562,930.866,23817,0.406,930.866,-8870757.0,7.398,1.818,0.0,0.0,0.0,4.2,0.252
23853,2,23853,36,0.84,0.114,0.388,116.997,129.207,14.443,0.21,0.24,0.4,-555.0,0.50,0.114,0.305,116.793,128.997,14.703,0.21,0.24,0.5,-555.0,13.278,90631.429,930.772,13.292,90623.304,930.579,23853,0.388,930.579,-8885070.0,-7.980,2.314,0.0,0.0,0.0,4.2,0.241
23926,2,23926,73,0.81,0.100,0.396,116.881,129.239,14.405,0.22,0.22,0.5,-555.0,0.114,0.100,0.463,116.588,129.406,14.235,0.21,0.19,0.6,-555.0,13.287,90631.85,930.947,13.301,90631.507,931.281,23926,0.396,931.281,-8913727.0,9.612,1.776,0.0,0.0,0.0,4.2,0.246
23962,2,23962,36,0.80,0.93,0.413,116.895,129.93,14.454,0.22,0.22,0.5,-555.0,0.107,0.71,0.470,116.647,128.778,14.527,0.25,0.23,0.6,-555.0,13.294,90630.109,930.809,13.297,90626.960,930.770,23962,0.413,930.770,-8928299.0,-14.187,2.741,0.0,0.0,0.0,4.2,0.256
24005,2,24005,43,0.84,0.89,0.400,116.743,129.111,14.352,0.22,0.22,0.6,-555.0,0.93,0.57,0.355,116.647,129.143,13.709,0.21,0.22,0.7,-555.0,13.299,90629.140,930.917,13.306,90631.343,931.89,24005,0.400,931.89,-8945797.0,7.423,1.817,0.0,0.0,0.0,4.2,0.248
24041,2,24041,36,0.103,0.93,0.417,116.650,129.120,14.279,0.21,0.22,0.6,-555.0,0.150,0.122,0.492,116.574,129.275,14.220,0.19,0.23,0.5,-555.0,13.299,90629.312,930.901,13.301,90633.445,930.786,24041,0.417,930.786,-8960524.0,-8.424,2.338,0.0,0.0,0.0,4.21,0.259
24084,2,24084,43,0.104,0.80,0.443,116.641,129.175,14.121,0.23,0.21,0.6,-555.0,0.57,0.50,0.434,116.749,129.275,13.914,0.27,0.19,0.3,-555.0,13.303,90630.218,931.89,13.310,90627.843,931.519,24084,0.443,931.519,-8979040.0,17.35,1.661,0.0,0.0,0.0,4.8,0.275
24120,2,24120,36,0.87,0.73,0.432,116.731,129.137,14.218,0.23,0.22,0.5,-555.0,0.28,0.64,0.406,117.41,129.216,14.717,0.21,0.24,0.1,-555.0,13.306,90629.39,930.971,13.315,90625.578,930.690,24120,0.432,930.690,-8994801.0,-23.8,4.228,0.0,0.0,0.0,4.2,0.268
24261,2,24261,141,0.73,0.77,0.434,116.761,129.327,14.133,0.22,0.22,0.4,-555.0,0.35,0.93,0.485,116.793,129.728,14.104,0.23,0.21,0.4,-555.0,13.311,90628.398,931.9,13.324,90623.796,930.963,24261,0.434,930.963,-9055922.0,1.932,1.945,0.0,0.0,0.0,4.2,0.270
24514,2,24514,253,0.80,0.86,0.472,116.851,129.339,14.273,0.22,0.22,0.4,-555.0,0.129,0.100,0.542,117.100,129.201,14.410,0.22,0.21,0.8,-555.0,13.307,90627.617,931.61,13.283,90627.453,931.347,24514,0.472,931.347,-9170679.0,1.518,1.956,0.0,0.0,0.0,4.2,0.293
24558,2,24558,44,0.41,0.76,0.446,116.910,129.441,14.273,0.22,0.21,0.4,-555.0,0.43,0.71,0.363,116.866,129.786,14.220,0.18,0.20,0.3,-555.0,13.303,90627.484,931.118,13.283,90632.726,931.73,24558,0.446,931.73,-9190889.0,-6.217,2.229,0.0,0.0,0.0,3.996,0.277
24594,2,24594,36,0.66,0.90,0.440,116.983,129.482,14.402,0.21,0.21,0.5,-555.0,0.179,0.122,0.406,117.114,129.479,14.557,0.19,0.20,0.8,-555.0,13.301,90627.898,930.975,13.301,90629.953,930.801,24594,0.440,930.801,-9206856.0,-7.566,2.293,0.0,0.0,0.0,4.15,0.273
24637,2,24637,43,0.63,0.97,0.436,116.834,129.590,14.396,0.21,0.21,0.6,-555.0,0.14,0.100,0.384,116.296,129.757,14.688,0.22,0.21,0.8,-555.0,13.302,90629.625,931.86,13.320,90634.171,931.245,24637,0.436,931.245,-9225712.0,10.327,1.763,0.0,0.0,0.0,4.15,0.271
24673,2,24673,36,0.60,0.99,0.449,116.828,129.546,14.460,0.20,0.23,0.6,-555.0,0.21,0.100,0.549,116.764,129.508,14.425,0.21,0.31,0.5,-555.0,13.305,90632.296,930.944,13.338,90637.171,930.254,24673,0.449,930.254,-9241653.0,-27.516,6.730,0.0,0.0,0.0,4.21,0.279
24718,2,24718,45,0.44,0.96,0.427,116.693,129.622,14.522,0.20,0.21,0.6,-555.0,0.50,0.86,0.434,116.427,129.581,14.717,0.20,0.15,0.4,-555.0,13.320,90634.203,930.911,13.356,90637.0,931.179,24718,0.427,931.179,-9261386.0,20.557,1.618,0.0,0.0,0.0,4.21,0.265
24754,2,24754,36,0.81,0.91,0.437,116.720,129.535,14.618,0.20,0.22,0.6,-555.0,0.143,0.50,0.413,116.997,129.348,14.703,0.17,0.24,0.4,-555.0,13.339,90633.210,930.794,13.379,90627.742,930.492,24754,0.437,930.492,-9276966.0,-19.93,3.340,0.0,0.0,0.0,4.21,0.272
24797,2,24797,43,0.66,0.96,0.442,116.536,129.523,14.598,0.20,0.23,0.4,-555.0,0.100,0.143,0.427,116.194,129.421,14.454,0.22,0.22,0.0,-555.0,13.356,90633.859,930.799,13.388,90633.179,930.825,24797,0.442,930.825,-9295884.0,7.742,1.811,0.0,0.0,0.0,4.21,0.274
24862,2,24862,65,0.74,0.103,0.457,116.632,129.497,14.615,0.20,0.24,0.4,-555.0,0.57,0.136,0.463,116.778,129.625,14.776,0.21,0.27,0.6,-555.0,13.371,90633.859,930.776,13.393,90634.234,931.128,24862,0.457,931.128,-9325134.0,4.665,1.877,0.0,0.0,0.0,4.21,0.284
24906,2,24906,44,0.282,0.101,0.434,116.699,129.447,14.641,0.19,0.22,0.5,-555.0,-1.765,0.93,0.434,117.100,129.260,14.557,0.17,0.21,0.10,-555.0,13.381,90632.828,930.848,13.388,90631.960,930.618,24906,0.434,930.618,-9344776.0,-11.607,2.534,0.0,0.0,0.0,4.15,0.270
24942,2,24942,36,0.281,0.109,0.413,116.655,129.400,14.589,0.20,0.23,0.6,-555.0,0.57,0.122,0.327,116.208,129.348,14.454,0.23,0.21,0.9,-555.0,13.388,90631.578,930.739,13.393,90630.742,930.634,24942,0.413,930.634,-9360046.0,0.444,1.986,0.0,0.0,0.0,4.21,0.256
24985,2,24985,43,0.254,0.111,0.424,116.571,129.397,14.583,0.22,0.23,0.7,-555.0,0.279,0.64,0.470,116.574,129.333,14.674,0.29,0.23,0.9,-555.0,13.393,90632.625,930.707,13.402,90633.15,930.330,24985,0.424,930.330,-9378069.0,-7.51,2.268,0.0,0.0,0.0,4.21,0.264
25021,2,25021,36,0.259,0.90,0.426,116.746,129.424,14.565,0.22,0.22,0.8,-555.0,0.71,0.35,0.434,117.71,129.552,14.367,0.19,0.20,0.6,-555.0,13.398,90631.625,930.755,13.411,90628.132,931.63,25021,0.426,931.63,-9393390.0,20.346,1.620,0.0,0.0,0.0,4.28,0.264
25064,2,25064,43,0.256,0.77,0.404,116.743,129.450,14.530,0.22,0.21,0.8,-555.0,0.71,0.71,0.355,116.764,129.757,14.600,0.20,0.21,0.6,-555.0,13.402,90632.218,930.684,13.416,90637.226,930.774,25064,0.404,930.774,-9411258.0,-6.706,2.251,0.0,0.0,0.0,4.21,0.251
25100,2,25100,36,0.111,0.73,0.396,116.693,129.447,14.586,0.23,0.21,0.7,-555.0,0.78,0.71,0.391,116.851,129.245,14.834,0.25,0.22,0.4,-555.0,13.410,90631.875,930.801,13.425,90630.242,931.205,25100,0.396,931.205,-9425675.0,11.954,1.736,0.0,0.0,0.0,4.2,0.246
25241,2,25241,141,0.111,0.58,0.403,116.746,129.488,14.580,0.22,0.22,0.6,-555.0,0.57,0.50,0.363,116.471,129.552,14.425,0.19,0.22,0.3,-555.0,13.417,90631.414,930.843,13.430,90628.468,930.841,25241,0.403,930.841,-9482039.0,-2.579,2.83,0.0,0.0,0.0,4.2,0.250
25277,2,25277,36,0.74,0.64,0.393,116.869,129.476,14.536,0.21,0.21,0.4,-555.0,0.93,0.93,0.420,117.187,129.275,14.454,0.22,0.21,0.3,-555.0,13.417,90631.554,930.906,13.402,90633.734,930.648,25277,0.393,930.648,-9496378.0,-5.350,2.191,0.0,0.0,0.0,4.2,0.244
25419,2,25419,142,0.80,0.77,0.393,116.717,129.450,14.492,0.21,0.22,0.3,-555.0,0.100,0.100,0.434,116.311,129.421,14.147,0.17,0.24,0.1,-555.0,13.421,90633.203,930.903,13.430,90636.343,931.48,25419,0.393,931.48,-9552225.0,2.813,1.922,0.0,0.0,0.0,4.2,0.244
25571,2,25571,152,0.81,0.68,0.404,116.574,129.368,14.355,0.21,0.22,0.4,-555.0,0.78,0.28,0.413,116.47,129.348,13.914,0.20,0.23,0.8,-555.0,13.419,90632.117,930.939,13.407,90631.789,930.952,25571,0.404,930.952,-9612877.0,0.630,2.19,0.0,0.0,0.0,4.8,0.251
25615,2,25615,44,0.89,0.86,0.413,116.445,129.473,14.226,0.20,0.22,0.4,-555.0,0.114,0.157,0.434,116.208,129.772,14.191,0.23,0.21,0.4,-555.0,13.417,90632.117,930.792,13.416,90630.242,930.472,25615,0.413,930.472,-9630876.0,-10.918,2.487,0.0,0.0,0.0,4.2,0.256
25651,2,25651,36,0.109,0.90,0.423,116.527,129.514,14.241,0.21,0.22,0.4,-555.0,0.157,0.71,0.413,116.881,129.757,14.498,0.21,0.21,0.2,-555.0,13.420,90634.437,930.807,13.444,90640.54,930.916,25651,0.423,930.916,-9645939.0,12.351,1.729,0.0,0.0,0.0,4.2,0.263
25696,2,25696,45,0.104,0.93,0.426,116.489,129.520,14.247,0.20,0.22,0.4,-555.0,0.71,0.107,0.434,116.997,129.304,14.484,0.21,0.21,0.5,-555.0,13.431,90633.601,930.889,13.457,90629.578,931.58,25696,0.426,931.58,-9665058.0,3.143,1.913,0.0,0.0,0.0,4.2,0.264
25732,2,25732,36,0.101,0.86,0.417,116.524,129.476,14.372,0.21,0.22,0.5,-555.0,0.86,0.64,0.391,116.486,129.201,14.776,0.21,0.21,0.4,-555.0,13.439,90633.757,930.933,13.471,90637.117,931.265,25732,0.417,931.265,-9680250.0,5.762,1.852,0.0,0.0,0.0,4.2,0.259
25774,2,25774,42,0.111,0.106,0.407,116.673,129.497,14.451,0.21,0.21,0.4,-555.0,0.129,0.129,0.363,116.793,129.450,14.308,0.20,0.21,0.6,-555.0,13.456,90632.726,930.941,13.490,90626.632,930.993,25774,0.407,930.993,-9697582.0,-6.485,2.241,0.0,0.0,0.0,4.2,0.253
25810,2,25810,36,0.110,0.101,0.419,116.822,129.356,14.463,0.21,0.22,0.4,-555.0,0.107,0.136,0.492,116.954,129.70,14.250,0.20,0.23,0.6,-555.0,13.472,90632.890,931.7,13.499,90631.15,930.800,25810,0.419,930.800,-9712464.0,-5.350,2.191,0.0,0.0,0.0,4.2,0.260
25852,2,25852,42,0.93,0.111,0.413,116.790,129.254,14.378,0.22,0.21,0.5,-555.0,0.71,0.122,0.384,116.720,129.245,14.74,0.25,0.16,0.4,-555.0,13.485,90631.250,930.948,13.508,90631.898,930.623,25852,0.413,930.623,-9729947.0,-4.220,2.144,0.0,0.0,0.0,4.2,0.256
25888,2,25888,36,0.96,0.77,0.404,116.717,129.196,14.405,0.22,0.21,0.5,-555.0,0.86,0.64,0.391,116.632,129.11,14.615,0.21,0.23,0.5,-555.0,13.499,90631.890,930.906,13.526,90632.789,930.846,25888,0.404,930.846,-9744674.0,6.191,1.843,0.0,0.0,0.0,4.15,0.251
25931,2,25931,43,0.111,0.74,0.400,116.755,129.245,14.296,0.21,0.20,0.6,-555.0,0.165,0.50,0.370,116.676,129.450,14.235,0.20,0.17,0.7,-555.0,13.512,90630.773,930.825,13.536,90631.570,930.861,25931,0.400,930.861,-9761987.0,0.359,1.989,0.0,0.0,0.0,4.2,0.248
26297,2,26297,366,0.130,0.68,0.427,116.767,129.199,14.238,0.22,0.21,0.5,-555.0,0.222,0.100,0.499,116.851,129.216,14.16,0.23,0.24,0.3,-555.0,13.524,90632.187,930.741,13.549,90633.671,930.574,26297,0.427,930.574,-9913549.0,0.786,2.24,0.0,0.0,0.0,4.2,0.265
26341,2,26341,44,0.123,0.47,0.407,116.650,129.295,14.270,0.21,0.20,0.5,-555.0,0.71,0.28,0.391,116.369,129.552,14.410,0.19,0.18,0.7,-555.0,13.536,90632.617,930.851,13.563,90633.171,931.352,26341,0.407,931.352,-9931927.0,17.686,1.653,0.0,0.0,0.0,4.2,0.253
26377,2,26377,36,0.107,0.35,0.416,116.550,129.424,14.279,0.20,0.21,0.20,-555.0,0.7,0.64,0.427,116.223,129.888,14.118,0.20,0.23,0.77,-555.0,13.552,90632.70,930.923,13.586,90629.171,930.983,26377,0.416,930.983,-9946757.0,-10.243,2.443,0.0,0.0,0.0,4.2,0.258
26420,2,26420,43,0.87,0.64,0.421,116.521,129.619,14.314,0.21,0.20,0.19,-555.0,0.14,0.78,0.420,116.486,129.991,14.790,0.23,0.19,0.1,-555.0,13.571,90632.164,930.855,13.623,90633.218,930.503,26420,0.421,930.503,-9964780.0,-11.159,2.503,0.0,0.0,0.0,4.2,0.262
26456,2,26456,36,0.89,0.74,0.417,116.410,129.739,14.405,0.22,0.21,0.19,-555.0,0.172,0.100,0.348,116.121,130.49,14.688,0.26,0.21,0.7,-555.0,13.591,90631.335,930.869,13.632,90627.445,930.933,26456,0.417,930.933,-9979894.0,11.939,1.736,0.0,0.0,0.0,4.15,0.259
26510,2,26510,54,0.71,0.70,0.419,116.433,129.894,14.440,0.22,0.20,0.19,-555.0,0.136,0.78,0.506,116.968,129.991,14.191,0.22,0.20,0.3,-555.0,13.611,90630.515,930.861,13.650,90629.554,930.534,26510,0.419,930.534,-10002488.0,-7.388,2.284,0.0,0.0,0.0,4.2,0.260
26546,2,26546,36,0.68,0.77,0.406,116.521,129.827,14.367,0.22,0.21,0.19,-555.0,0.57,0.64,0.327,116.807,129.216,14.45,0.21,0.24,0.10,-555.0,13.630,90630.625,930.764,13.660,90633.765,930.868,26546,0.406,930.868,-10017344.0,9.279,1.782,0.0,0.0,0.0,4.2,0.252
26590,2,26590,44,0.101,0.74,0.420,116.506,129.687,14.440,0.23,0.22,0.5,-555.0,0.157,0.50,0.499,116.150,129.187,14.484,0.23,0.25,0.7,-555.0,13.648,90631.62,930.703,13.673,90631.320,930.676,26590,0.420,930.676,-10035533.0,-4.365,2.150,0.0,0.0,0.0,4.2,0.261
26627,2,26627,37,0.113,0.68,0.413,116.571,129.576,14.332,0.22,0.22,0.6,-555.0,0.43,0.50,0.384,116.807,129.435,14.250,0.19,0.22,0.4,-555.0,13.661,90629.734,930.721,13.687,90626.601,930.596,26627,0.413,930.596,-10050961.0,-2.156,2.69,0.0,0.0,0.0,4.21,0.256
26672,2,26672,45,0.109,0.63,0.424,116.790,129.409,14.226,0.22,0.23,0.5,-555.0,0.150,0.71,0.406,117.217,129.216,14.162,0.23,0.26,0.4,-555.0,13.673,90631.109,930.698,13.692,90634.312,930.818,26672,0.424,930.818,-10069822.0,4.927,1.871,0.0,0.0,0.0,4.28,0.264
26708,2,26708,36,0.99,0.58,0.413,116.731,129.321,14.200,0.22,0.24,0.7,-555.0,0.86,0.57,0.449,116.676,129.552,14.60,0.22,0.21,0.10,-555.0,13.684,90631.359,930.698,13.706,90630.812,930.531,26708,0.413,930.531,-10084911.0,-7.978,2.314,0.0,0.0,0.0,4.21,0.256
26751,2,26751,43,0.99,0.64,0.430,116.743,129.365,14.185,0.22,0.24,0.6,-555.0,0.57,0.93,0.413,116.866,129.435,13.972,0.21,0.25,0.5,-555.0,13.695,90631.398,930.652,13.715,90633.976,930.641,26751,0.430,930.641,-10103057.0,2.571,1.928,0.0,0.0,0.0,4.21,0.267
26787,2,26787,36,0.103,0.74,0.423,116.822,129.488,14.68,0.22,0.24,0.5,-555.0,0.179,0.100,0.463,116.544,129.801,13.899,0.25,0.25,0.3,-555.0,13.703,90630.531,930.709,13.715,90626.976,930.960,26787,0.423,930.960,-10118430.0,8.867,1.789,0.0,0.0,0.0,4.15,0.263
26830,2,26830,43,0.100,0.83,0.421,116.699,129.582,14.159,0.22,0.24,0.6,-555.0,0.28,0.93,0.377,116.194,129.903,14.703,0.20,0.23,0.8,-555.0,13.711,90632.609,930.805,13.729,90636.960,931.72,26830,0.421,931.72,-10136607.0,2.597,1.927,0.0,0.0,0.0,4.28,0.262
26866,2,26866,36,0.139,0.93,0.430,116.571,129.754,14.177,0.22,0.24,0.6,-555.0,0.344,0.122,0.449,116.574,130.78,14.250,0.24,0.24,0.6,-555.0,13.720,90632.226,930.820,13.738,90632.414,930.896,26866,0.430,930.896,-10151954.0,-4.906,2.172,0.0,0.0,0.0,4.8,0.267
27007,2,27007,141,0.139,0.97,0.417,116.518,129.853,14.191,0.22,0.24,0.5,-555.0,0.86,0.78,0.384,116.413,130.49,14.133,0.19,0.23,0.6,-555.0,13.728,90631.765,930.945,13.742,90628.539,931.153,27007,0.417,931.153,-10211760.0,1.826,1.948,0.0,0.0,0.0,4.8,0.259
27275,2,27275,268,0.127,0.84,0.416,116.486,129.900,14.329,0.23,0.23,0.5,-555.0,0.0,0.28,0.406,116.705,129.669,14.659,0.25,0.21,0.2,-555.0,13.730,90631.351,930.903,13.724,90631.867,930.434,27275,0.416,930.434,-10323509.0,-2.681,2.87,0.0,0.0,0.0,4.2,0.258
27318,2,27318,43,0.119,0.81,0.416,116.617,129.847,14.402,0.21,0.22,0.5,-555.0,0.136,0.86,0.463,117.202,129.538,14.264,0.19,0.20,0.3,-555.0,13.733,90632.406,930.928,13.733,90632.242,931.87,27318,0.416,931.87,-10341408.0,15.179,1.687,0.0,0.0,0.0,4.15,0.258
27355,2,27355,37,0.109,0.93,0.440,116.799,129.754,14.337,0.21,0.22,0.4,-555.0,0.21,0.150,0.499,117.100,129.435,14.381,0.18,0.22,0.5,-555.0,13.740,90630.265,930.903,13.761,90626.304,930.942,27355,0.440,930.942,-10357261.0,-3.912,2.132,0.0,0.0,0.0,4.15,0.273
27396,2,27396,41,0.40,0.96,0.429,116.802,129.655,14.337,0.22,0.22,0.4,-555.0,0.0,0.136,0.391,116.588,129.581,14.250,0.27,0.22,0.5,-555.0,13.748,90630.804,930.880,13.779,90635.62,930.781,27396,0.429,930.781,-10375093.0,-3.946,2.134,0.0,0.0,0.0,4.21,0.266
27432,2,27432,36,0.50,0.94,0.414,116.848,129.526,14.332,0.23,0.22,0.5,-555.0,0.136,0.71,0.312,116.647,129.406,14.104,0.26,0.24,0.9,-555.0,13.759,90633.164,930.808,13.798,90640.328,930.796,27432,0.414,930.796,-10390285.0,0.428,1.987,0.0,0.0,0.0,4.15,0.257
27475,2,27475,43,0.80,0.70,0.421,116.980,129.535,14.191,0.23,0.23,0.6,-555.0,0.150,0.93,0.442,117.363,129.713,13.957,0.26,0.25,0.7,-555.0,13.777,90632.789,930.986,13.816,90630.0,931.323,27475,0.421,931.323,-10408277.0,12.248,1.731,0.0,0.0,0.0,4.28,0.262
27511,2,27511,36,0.74,0.64,0.410,116.901,129.532,14.171,0.24,0.23,0.6,-555.0,0.107,0.57,0.406,116.807,129.523,14.162,0.25,0.22,0.2,-555.0,13.796,90633.390,930.994,13.825,90635.265,931.131,27511,0.410,931.131,-10423262.0,-5.335,2.190,0.0,0.0,0.0,4.15,0.255
27564,2,27564,53,0.77,0.40,0.386,116.872,129.599,14.25,0.25,0.23,0.5,-555.0,0.7,0.28,0.377,116.954,129.772,13.650,0.22,0.21,0.3,-555.0,13.809,90635.187,930.994,13.830,90635.265,930.940,27564,0.386,930.940,-10444372.0,-3.603,2.121,0.0,0.0,0.0,4.21,0.239
27600,2,27600,36,0.78,0.37,0.376,116.848,129.672,14.30,0.24,0.23,0.5,-555.0,0.7,0.122,0.341,116.471,129.947,14.279,0.20,0.23,0.2,-555.0,13.822,90633.828,931.9,13.844,90628.273,930.859,27600,0.376,930.859,-10458091.0,-2.246,2.72,0.0,0.0,0.0,4.15,0.233
27646,2,27646,46,0.314,0.44,0.383,116.775,129.754,14.92,0.23,0.23,0.4,-555.0,-1.830,0.107,0.348,116.281,129.815,14.410,0.22,0.23,0.7,-555.0,13.833,90631.375,931.47,13.853,90628.101,930.985,27646,0.383,930.985,-10475555.0,2.750,1.923,0.0,0.0,0.0,4.2,0.238
27683,2,27683,37,0.333,0.84,0.377,116.746,129.710,14.136,0.22,0.22,0.4,-555.0,0.57,0.107,0.413,117.217,129.494,14.177,0.21,0.21,0.5,-555.0,13.843,90631.625,930.900,13.862,90631.257,930.586,27683,0.377,930.586,-10489628.0,-10.783,2.478,0.0,0.0,0.0,4.2,0.234
27725,2,27725,42,0.337,0.86,0.378,116.737,129.763,14.136,0.22,0.22,0.6,-555.0,0.86,0.64,0.413,116.764,129.786,14.162,0.24,0.22,0.10,-555.0,13.851,90631.39,930.814,13.866,90632.312,930.698,27725,0.378,930.698,-10505513.0,2.660,1.926,0.0,0.0,0.0,4.2,0.235
27761,2,27761,36,0.310,0.87,0.387,116.731,129.614,14.223,0.21,0.22,0.5,-555.0,0.129,0.35,0.420,116.924,129.26,14.89,0.18,0.22,0.3,-555.0,13.861,90630.625,930.829,13.880,90633.195,931.17,27761,0.387,931.17,-10519310.0,8.850,1.790,0.0,0.0,0.0,4.8,0.240
27803,2,27803,42,0.287,0.68,0.388,116.787,129.500,14.168,0.22,0.22,0.5,-555.0,0.122,0.28,0.348,116.749,129.377,14.1,0.24,0.22,0.3,-555.0,13.870,90631.859,930.758,13.889,90634.414,930.505,27803,0.388,930.505,-10535617.0,-12.172,2.575,0.0,0.0,0.0,4.8,0.241
27839,2,27839,36,0.91,0.55,0.396,116.764,129.391,14.165,0.22,0.22,0.5,-555.0,0.64,0.43,0.384,116.164,129.275,14.396,0.24,0.22,0.3,-555.0,13.878,90632.421,930.745,13.889,90630.914,930.920,27839,0.396,930.920,-10549749.0,11.525,1.743,0.0,0.0,0.0,4.8,0.246
27979,2,27979,140,0.93,0.61,0.404,116.600,129.307,14.323,0.23,0.22,0.5,-555.0,0.64,0.136,0.456,116.398,129.70,14.966,0.23,0.25,0.6,-555.0,13.883,90633.218,930.896,13.889,90635.265,931.337,27979,0.404,931.337,-10605814.0,2.979,1.917,0.0,0.0,0.0,4.2,0.251
28015,2,28015,36,0.91,0.63,0.397,116.518,129.181,14.343,0.23,0.22,0.5,-555.0,0.78,0.71,0.377,116.354,129.158,14.264,0.25,0.18,0.9,-555.0,13.877,90633.78,930.928,13.834,90631.601,930.859,28015,0.397,930.859,-10620257.0,-13.298,2.663,0.0,0.0,0.0,3.996,0.247
28287,2,28287,272,0.76,0.67,0.393,116.512,129.254,14.367,0.24,0.21,0.6,-555.0,0.50,0.57,0.399,116.895,129.391,14.206,0.24,0.20,0.8,-555.0,13.872,90633.562,930.928,13.857,90635.609,931.19,28287,0.393,931.19,-10727816.0,0.590,1.982,0.0,0.0,0.0,3.996,0.244
28324,2,28324,37,0.68,0.97,0.432,116.521,129.286,14.370,0.24,0.23,0.7,-555.0,0.86,0.179,0.542,116.793,129.538,14.16,0.23,0.32,0.7,-555.0,13.863,90633.656,930.941,13.844,90634.929,930.570,28324,0.432,930.570,-10743085.0,-12.150,2.573,0.0,0.0,0.0,4.2,0.268
28368,2,28368,44,0.45,0.99,0.416,116.752,129.315,14.299,0.25,0.21,0.7,-555.0,0.50,0.50,0.305,117.319,129.421,14.45,0.30,0.11,0.6,-555.0,13.857,90633.953,930.855,13.862,90632.312,930.490,28368,0.416,930.490,-10761748.0,-1.814,2.57,0.0,0.0,0.0,4.2,0.258
28404,2,28404,36,0.90,0.77,0.393,116.796,129.280,14.86,0.24,0.21,0.7,-555.0,0.287,0.28,0.341,116.617,128.895,13.899,0.19,0.26,0.7,-555.0,13.855,90632.617,930.775,13.876,90628.640,930.936,28404,0.393,930.936,-10776320.0,12.383,1.729,0.0,0.0,0.0,4.2,0.244
28441,2,28441,37,0.81,0.78,0.417,116.889,129.222,14.51,0.23,0.23,0.7,-555.0,0.35,0.78,0.499,116.822,128.865,14.89,0.19,0.26,0.8,-555.0,13.866,90632.171,930.816,13.894,90629.351,931.63,28441,0.417,931.63,-10791323.0,3.436,1.906,0.0,0.0,0.0,4.2,0.259
28484,2,28484,43,0.70,0.71,0.426,116.863,129.222,14.4,0.24,0.23,0.7,-555.0,0.7,0.21,0.442,116.764,129.391,13.972,0.27,0.20,0.7,-555.0,13.878,90631.335,930.744,13.912,90631.453,930.663,28484,0.426,930.663,-10809469.0,-9.291,2.386,0.0,0.0,0.0,4.8,0.264
28520,2,28520,36,0.129,0.58,0.414,116.860,129.231,13.995,0.23,0.22,0.7,-555.0,0.380,0.114,0.485,116.778,129.581,13.972,0.19,0.25,0.6,-555.0,13.895,90631.484,930.875,13.931,90635.664,931.222,28520,0.414,931.222,-10824609.0,15.516,1.682,0.0,0.0,0.0,4.8,0.257
28574,2,28574,54,0.153,0.66,0.424,116.758,129.304,13.981,0.22,0.25,0.6,-555.0,0.71,0.86,0.355,116.807,129.786,13.972,0.26,0.26,0.4,-555.0,13.911,90631.250,931.21,13.940,90631.117,931.222,28574,0.424,931.222,-10847281.0,0.0,2.0,0.0,0.0,0.0,4.8,0.264
28611,2,28611,37,0.90,0.84,0.437,116.837,129.444,13.972,0.23,0.24,0.6,-555.0,0.28,0.122,0.406,117.12,129.596,13.855,0.25,0.23,0.4,-555.0,13.923,90632.578,931.43,13.940,90635.328,931.45,28611,0.437,931.45,-10863240.0,-4.775,2.167,0.0,0.0,0.0,4.2,0.272
28657,2,28657,46,0.78,0.78,0.416,116.845,129.500,13.969,0.24,0.22,0.5,-555.0,0.21,0.50,0.391,116.866,129.143,14.74,0.22,0.15,0.5,-555.0,13.936,90632.835,930.998,13.958,90630.601,930.838,28657,0.416,930.838,-10882883.0,-4.498,2.155,0.0,0.0,0.0,4.2,0.258
28693,2,28693,36,0.117,0.87,0.414,116.957,129.535,13.864,0.23,0.24,0.4,-555.0,0.186,0.64,0.434,117.319,129.567,13.446,0.24,0.32,0.2,-555.0,13.948,90632.632,931.58,13.972,90630.429,930.965,28693,0.414,930.965,-10897842.0,3.516,1.904,0.0,0.0,0.0,4.21,0.257
28736,2,28736,43,0.45,0.80,0.413,116.857,129.520,13.908,0.24,0.24,0.4,-555.0,0.21,0.78,0.477,116.281,129.508,14.191,0.25,0.24,0.6,-555.0,13.959,90631.585,931.29,13.986,90630.429,931.77,28736,0.413,931.77,-10915648.0,2.597,1.927,0.0,0.0,0.0,4.21,0.256
28772,2,28772,36,0.60,0.76,0.407,116.907,129.386,14.36,0.22,0.22,0.3,-555.0,0.143,0.64,0.327,117.56,129.114,14.615,0.16,0.14,0.0,-555.0,13.967,90632.78,930.917,13.977,90633.585,930.661,28772,0.407,930.661,-10930427.0,-11.540,2.529,0.0,0.0,0.0,4.15,0.253
28815,2,28815,43,0.103,0.66,0.430,116.942,129.348,14.267,0.21,0.22,0.4,-555.0,0.186,0.71,0.521,117.187,129.406,15.10,0.21,0.23,0.8,-555.0,13.975,90630.820,930.927,13.981,90629.31,931.92,28815,0.430,931.92,-10948450.0,10.21,1.768,0.0,0.0,0.0,4.21,0.267
28851,2,28851,36,0.114,0.61,0.429,116.881,129.438,14.372,0.22,0.22,0.4,-555.0,0.35,0.28,0.384,116.559,129.596,14.600,0.23,0.19,0.4,-555.0,13.980,90630.960,930.955,13.986,90631.312,930.980,28851,0.429,930.980,-10963926.0,-3.104,2.102,0.0,0.0,0.0,4.15,0.266
28991,2,28991,140,0.96,0.70,0.424,116.819,129.421,14.484,0.22,0.21,0.5,-555.0,0.93,0.107,0.413,117.12,129.479,14.1,0.27,0.26,0.6,-555.0,13.983,90632.179,930.863,13.986,90636.546,930.503,28991,0.424,930.503,-11023709.0,-3.407,2.113,0.0,0.0,0.0,4.15,0.264
29027,2,29027,36,0.383,1.503,0.775,116.755,129.365,14.638,0.22,0.28,0.9,-555.0,-2.376,7.788,5.523,115.960,129.231,14.966,0.21,0.58,0.27,-555.0,13.977,90633.164,930.840,13.954,90635.328,930.965,29027,0.775,930.965,-11017400.0,12.825,1.722,0.0,0.0,0.0,4.2,0.481
29301,2,29301,274,0.390,1.493,0.766,116.606,129.465,14.638,0.23,0.28,0.10,-555.0,0.107,0.114,0.370,116.311,129.611,14.615,0.21,0.16,0.6,-555.0,13.975,90630.781,930.815,13.968,90621.664,930.535,29301,0.766,930.535,-10806129.0,-1.570,2.49,0.0,0.0,0.0,4.2,0.476
29337,2,29337,36,0.419,1.470,0.825,116.606,129.517,14.460,0.23,0.29,0.9,-555.0,0.43,0.186,0.226,117.187,129.669,14.118,0.25,0.24,0.3,-555.0,13.973,90632.390,930.815,13.972,90637.85,931.92,29337,0.825,931.92,-10777466.0,15.485,1.682,0.0,0.0,0.0,4.15,0.513
29381,2,29381,44,0.393,1.461,0.786,116.670,129.444,14.425,0.24,0.29,0.10,-555.0,0.165,0.71,0.578,116.881,129.231,14.425,0.26,0.21,0.7,-555.0,13.975,90632.984,930.700,13.995,90634.296,930.405,29381,0.786,930.405,-10741992.0,-15.609,2.880,0.0,0.0,0.0,4.21,0.489
29417,2,29417,36,0.412,1.475,0.805,116.661,129.339,14.472,0.23,0.27,0.10,-555.0,0.0,0.35,0.320,116.968,128.953,14.235,0.22,0.18,0.7,-555.0,13.980,90632.890,930.731,14.14,90636.54,930.660,29417,0.805,930.660,-10713329.0,7.76,1.824,0.0,0.0,0.0,4.15,0.500
29460,2,29460,43,0.89,0.106,0.397,116.802,129.505,14.434,0.24,0.21,0.6,-555.0,0.129,0.122,0.492,116.661,130.64,14.776,0.23,0.29,0.9,-555.0,13.998,90631.171,930.696,14.41,90626.773,930.787,29460,0.397,930.787,-10704559.0,2.956,1.918,0.0,0.0,0.0,4.15,0.247
29496,2,29496,36,0.71,0.99,0.393,116.921,129.503,14.288,0.24,0.21,0.6,-555.0,0.21,0.78,0.348,116.910,129.596,13.884,0.24,0.16,0.3,-555.0,14.14,90633.78,930.791,14.50,90631.156,931.11,29496,0.393,931.11,-10718795.0,6.206,1.843,0.0,0.0,0.0,4.21,0.244
29539,2,29539,43,0.81,0.83,0.407,116.822,129.523,14.241,0.24,0.22,0.6,-555.0,0.93,0.107,0.298,116.691,129.772,13.884,0.22,0.26,0.6,-555.0,14.33,90631.148,930.653,14.64,90627.484,930.404,29539,0.407,930.404,-10736015.0,-14.116,2.734,0.0,0.0,0.0,4.21,0.253
29588,2,29588,49,0.54,0.76,0.386,116.924,129.628,14.194,0.23,0.22,0.6,-555.0,0.28,0.35,0.470,117.392,129.757,14.191,0.24,0.23,0.6,-555.0,14.48,90631.828,930.717,14.73,90637.640,930.722,29588,0.386,930.722,-10755462.0,6.502,1.836,0.0,0.0,0.0,4.21,0.239
29633,2,29633,45,0.57,0.87,0.414,116.805,129.818,14.220,0.22,0.23,0.5,-555.0,0.14,0.93,0.463,116.369,129.903,14.367,0.17,0.22,0.4,-555.0,14.61,90631.648,930.669,14.78,90635.195,930.419,29633,0.414,930.419,-10773483.0,-6.726,2.252,0.0,0.0,0.0,4.21,0.257
29670,2,29670,37,0.64,0.71,0.420,116.857,129.731,14.177,0.23,0.22,0.5,-555.0,0.165,0.43,0.521,116.924,129.625,14.557,0.26,0.23,0.4,-555.0,14.71,90632.390,930.534,14.87,90630.468,930.116,29670,0.420,930.116,-10788938.0,-8.210,2.326,0.0,0.0,0.0,4.15,0.261
29713,2,29713,43,0.83,0.71,0.437,116.816,129.827,14.220,0.22,0.23,0.6,-555.0,0.114,0.78,0.434,116.705,130.78,14.104,0.19,0.23,0.10,-555.0,14.79,90633.625,930.627,14.92,90637.296,931.472,29713,0.437,931.472,-10807393.0,31.549,1.513,0.0,0.0,0.0,4.15,0.272
29750,2,29750,37,0.78,0.68,0.459,116.787,129.728,14.343,0.22,0.22,0.6,-555.0,0.71,0.93,0.406,116.544,129.275,14.498,0.24,0.21,0.4,-555.0,14.84,90634.421,930.677,14.92,90631.523,930.658,29750,0.459,930.658,-10823990.0,-22.15,3.945,0.0,0.0,0.0,4.15,0.285
29792,2,29792,42,0.81,0.66,0.452,116.705,129.678,14.355,0.22,0.21,0.5,-555.0,0.43,0.21,0.434,116.983,129.508,14.250,0.23,0.17,0.4,-555.0,14.89,90634.531,930.792,14.96,90638.179,931.296,29792,0.452,931.296,-10843131.0,15.200,1.686,0.0,0.0,0.0,4.2,0.281
29828,2,29828,36,0.78,0.57,0.453,116.799,129.617,14.337,0.22,0.22,0.4,-555.0,0.0,0.50,0.470,116.837,129.596,14.279,0.17,0.24,0.0,-555.0,14.95,90632.820,930.786,14.110,90626.617,930.386,29828,0.453,930.386,-10859434.0,-25.285,5.141,0.0,0.0,0.0,3.996,0.281
29969,2,29969,141,0.68,0.54,0.423,116.685,129.520,14.250,0.22,0.21,0.5,-555.0,0.114,0.28,0.370,116.354,129.143,14.118,0.25,0.21,0.6,-555.0,14.101,90633.484,930.852,14.115,90633.796,930.450,29969,0.423,930.450,-10921264.0,0.456,1.986,0.0,0.0,0.0,3.996,0.263
30005,2,30005,36,0.81,0.44,0.409,116.547,129.365,14.115,0.22,0.21,0.5,-555.0,0.179,0.28,0.363,116.18,129.304,13.431,0.21,0.24,0.10,-555.0,14.103,90632.960,930.654,14.101,90634.679,930.482,30005,0.409,930.482,-10936249.0,0.886,1.974,0.0,0.0,0.0,3.989,0.254
30147,2,30147,142,0.89,0.37,0.433,116.661,129.339,14.95,0.21,0.21,0.5,-555.0,0.107,0.57,0.528,117.114,129.143,14.396,0.17,0.20,0.3,-555.0,14.109,90633.390,930.702,14.124,90633.625,930.897,30147,0.433,930.897,-10996071.0,2.922,1.919,0.0,0.0,0.0,4.2,0.269
30316,2,30316,169,0.97,0.55,0.442,116.769,129.184,14.101,0.20,0.22,0.5,-555.0,0.86,0.114,0.477,117.524,128.734,14.279,0.20,0.21,0.3,-555.0,14.114,90632.687,930.619,14.119,90634.679,930.881,30316,0.442,930.881,-11070058.0,0.94,2.2,0.0,0.0,0.0,4.2,0.274
30359,2,30359,43,0.107,0.64,0.427,116.717,129.131,14.191,0.21,0.21,0.6,-555.0,0.50,0.93,0.399,116.574,129.333,14.732,0.21,0.20,0.8,-555.0,14.116,90634.671,930.686,14.124,90636.609,930.721,30359,0.427,930.721,-11088760.0,-3.724,2.125,0.0,0.0,0.0,4.2,0.265
30395,2,30395,36,0.107,0.83,0.452,116.910,129.237,14.174,0.20,0.22,0.6,-555.0,0.114,0.122,0.492,117.319,129.669,14.30,0.21,0.23,0.6,-555.0,14.123,90634.679,930.747,14.147,90633.812,930.752,30395,0.452,930.752,-11104598.0,0.871,1.974,0.0,0.0,0.0,4.2,0.281
30438,2,30438,43,0.74,0.97,0.467,117.41,129.260,14.346,0.21,0.21,0.5,-555.0,0.14,0.100,0.442,116.676,129.421,14.294,0.24,0.21,0.6,-555.0,14.135,90634.476,930.788,14.161,90633.640,930.689,30438,0.467,930.689,-11124380.0,-1.484,2.46,0.0,0.0,0.0,4.8,0.290
30474,2,30474,36,0.58,0.96,0.452,117.15,129.275,14.375,0.22,0.22,0.6,-555.0,0.28,0.50,0.449,116.983,129.216,14.542,0.24,0.23,0.6,-555.0,14.146,90635.773,930.670,14.179,90640.125,930.304,30474,0.452,930.304,-11140942.0,-10.669,2.470,0.0,0.0,0.0,4.2,0.281
30517,2,30517,43,0.43,0.101,0.432,116.924,129.476,14.355,0.23,0.22,0.6,-555.0,0.7,0.143,0.377,117.71,129.742,14.177,0.22,0.22,0.3,-555.0,14.161,90636.546,930.743,14.193,90638.546,931.246,30517,0.432,931.246,-11159952.0,21.897,1.603,0.0,0.0,0.0,4.2,0.268
30553,2,30553,36,0.35,0.104,0.436,116.860,129.523,14.311,0.23,0.23,0.5,-555.0,0.14,0.107,0.420,116.252,129.567,14.513,0.22,0.24,0.5,-555.0,14.176,90636.687,930.851,14.202,90637.328,931.263,30553,0.436,931.263,-11175583.0,0.474,1.985,0.0,0.0,0.0,4.8,0.271
30598,2,30598,45,0.31,0.86,0.442,116.667,129.438,14.384,0.22,0.23,0.5,-555.0,0.93,0.28,0.521,116.354,129.245,14.396,0.19,0.23,0.7,-555.0,14.190,90636.23,930.953,14.216,90630.492,931.263,30598,0.442,931.263,-11195348.0,0.0,2.0,0.0,0.0,0.0,4.2,0.274
30634,2,30634,36,0.68,0.86,0.424,116.641,129.447,14.314,0.23,0.22,0.5,-555.0,0.200,0.100,0.355,116.544,129.465,13.943,0.28,0.20,0.6,-555.0,14.201,90635.828,930.966,14.216,90632.593,930.752,30634,0.424,930.752,-11210953.0,-14.202,2.742,0.0,0.0,0.0,4.21,0.264
30678,2,30678,44,0.76,0.91,0.421,116.349,129.444,14.156,0.23,0.22,0.5,-555.0,0.64,0.78,0.434,115.521,129.201,13.753,0.23,0.20,0.3,-555.0,14.209,90634.976,931.100,14.220,90635.921,930.975,30678,0.421,930.975,-11229584.0,5.78,1.867,0.0,0.0,0.0,4.2,0.262
31045,2,31045,367,0.114,0.74,0.424,116.170,129.453,14.229,0.23,0.22,0.5,-555.0,0.200,0.57,0.391,116.179,129.786,14.542,0.21,0.21,0.4,-555.0,14.216,90633.710,930.972,14.225,90632.242,930.608,31045,0.424,930.608,-11384985.0,-1.1,2.30,0.0,0.0,0.0,4.2,0.264
31089,2,31089,44,0.116,0.61,0.429,116.170,129.494,14.185,0.23,0.21,0.5,-555.0,0.21,0.43,0.442,116.252,129.772,14.294,0.22,0.21,0.3,-555.0,14.213,90633.953,930.765,14.188,90638.546,930.225,31089,0.429,930.225,-11403774.0,-8.691,2.352,0.0,0.0,0.0,4.15,0.266
31125,2,31125,36,0.113,0.70,0.393,116.173,129.470,14.159,0.23,0.21,0.5,-555.0,0.78,0.71,0.341,116.369,129.128,14.264,0.22,0.22,0.6,-555.0,14.215,90634.132,930.752,14.225,90631.367,931.199,31125,0.393,931.199,-11418578.0,27.41,1.552,0.0,0.0,0.0,4.15,0.244
31168,2,31168,43,0.80,0.67,0.397,116.235,129.587,14.194,0.23,0.21,0.5,-555.0,0.35,0.86,0.377,116.851,130.49,14.118,0.25,0.21,0.6,-555.0,14.220,90635.398,930.723,14.243,90638.906,930.607,31168,0.397,930.607,-11435582.0,-13.758,2.702,0.0,0.0,0.0,4.21,0.247
31205,2,31205,37,0.73,0.68,0.419,116.541,129.622,14.223,0.22,0.21,0.5,-555.0,0.28,0.86,0.542,117.56,129.377,13.899,0.20,0.19,0.5,-555.0,14.227,90634.835,930.697,14.253,90633.125,930.847,31205,0.419,930.847,-11450691.0,6.484,1.837,0.0,0.0,0.0,4.15,0.260
31258,2,31258,53,0.53,0.74,0.421,116.623,129.646,14.215,0.22,0.21,0.5,-555.0,0.100,0.86,0.406,116.588,129.903,14.498,0.20,0.20,0.5,-555.0,14.236,90635.398,930.704,14.271,90635.54,930.640,31258,0.421,930.640,-11472981.0,-3.914,2.133,0.0,0.0,0.0,4.15,0.262
31294,2,31294,36,0.55,0.73,0.414,116.848,129.634,14.118,0.23,0.21,0.5,-555.0,0.35,0.35,0.406,117.377,129.713,13.811,0.26,0.21,0.5,-555.0,14.254,90633.968,930.812,14.280,90631.375,930.767,31294,0.414,930.767,-11488044.0,3.531,1.904,0.0,0.0,0.0,4.21,0.257
31338,2,31338,44,0.57,0.66,0.446,116.863,129.754,13.978,0.22,0.21,0.5,-548.599,0.86,0.35,0.499,116.442,129.728,13.563,0.19,0.21,0.7,-523.0,14.266,90634.390,930.646,14.285,90633.476,930.368,31338,0.446,930.368,-11506991.0,-9.67,2.373,0.0,0.0,0.0,4.21,0.277
31374,2,31374,36,0.78,0.60,0.450,116.933,129.649,13.972,0.22,0.21,0.6,-548.599,0.143,0.57,0.399,117.202,129.523,14.89,0.27,0.22,0.7,-555.0,14.277,90634.179,930.499,14.298,90637.859,929.872,31374,0.450,929.872,-11523139.0,-13.758,2.702,0.0,0.0,0.0,4.15,0.280
31417,2,31417,43,0.87,0.60,0.424,116.875,129.646,14.83,0.23,0.21,0.6,-548.599,0.71,0.86,0.413,116.764,129.362,14.454,0.23,0.20,0.4,-555.0,14.288,90635.93,930.511,14.308,90637.687,930.910,31417,0.424,930.910,-11541964.0,24.137,1.580,0.0,0.0,0.0,4.21,0.264
31453,2,31453,36,0.89,0.66,0.436,116.930,129.473,14.25,0.22,0.22,0.6,-548.599,0.107,0.114,0.463,116.866,129.41,14.206,0.18,0.24,0.5,-555.0,14.297,90633.796,930.463,14.312,90628.570,930.399,31453,0.436,930.399,-11557466.0,-14.200,2.742,0.0,0.0,0.0,4.21,0.271
31504,2,31504,51,0.114,0.73,0.442,116.878,129.409,14.51,0.22,0.22,0.7,-548.599,0.165,0.71,0.434,117.114,129.391,13.943,0.25,0.22,0.10,-555.0,14.305,90634.140,930.537,14.321,90633.132,931.134,31504,0.442,931.134,-11579867.0,14.405,1.698,0.0,0.0,0.0,4.15,0.274
31541,2,31541,37,0.130,0.90,0.437,116.921,129.462,14.174,0.23,0.22,0.6,-555.0,0.165,0.122,0.477,116.661,129.991,14.177,0.21,0.21,0.4,-555.0,14.311,90634.703,930.549,14.317,90636.281,930.432,31541,0.437,930.432,-11596145.0,-18.978,3.322,0.0,0.0,0.0,4.21,0.272
31586,2,31586,45,0.114,0.87,0.455,116.866,129.467,14.153,0.22,0.22,0.6,-555.0,0.64,0.43,0.485,116.924,129.552,13.987,0.23,0.21,0.8,-555.0,14.318,90634.140,930.808,14.331,90635.54,931.166,31586,0.455,931.166,-11616233.0,16.326,1.671,0.0,0.0,0.0,4.21,0.282
31622,2,31622,36,0.123,0.91,0.457,116.834,129.479,14.25,0.21,0.22,0.8,-555.0,0.114,0.107,0.427,116.603,129.421,13.811,0.20,0.24,0.11,-555.0,14.324,90634.453,930.843,14.340,90639.265,931.86,31622,0.457,931.86,-11632665.0,-2.232,2.71,0.0,0.0,0.0,4.15,0.284
31763,2,31763,141,0.113,0.83,0.452,116.845,129.546,14.147,0.23,0.23,0.8,-555.0,0.57,0.71,0.434,116.924,129.377,14.820,0.26,0.25,0.6,-555.0,14.332,90636.453,930.911,14.354,90638.562,930.735,31763,0.452,930.735,-11696823.0,-2.489,2.80,0.0,0.0,0.0,4.15,0.281
32033,2,32033,270,0.99,0.81,0.452,116.708,129.599,14.206,0.22,0.22,0.6,-555.0,0.93,0.64,0.434,116.427,129.655,14.235,0.21,0.20,0.3,-555.0,14.334,90638.70,930.703,14.331,90641.187,930.96,32033,0.452,930.96,-11818903.0,-2.366,2.76,0.0,0.0,0.0,3.996,0.281
32076,2,32076,43,0.78,0.86,0.449,116.606,129.473,14.238,0.23,0.23,0.7,-555.0,0.64,0.143,0.463,116.150,129.362,14.337,0.22,0.25,0.7,-555.0,14.334,90637.828,930.703,14.317,90635.54,930.432,32076,0.449,930.432,-11838284.0,7.806,1.810,0.0,0.0,0.0,3.996,0.279
32112,2,32112,36,0.80,0.89,0.426,116.436,129.394,14.238,0.23,0.23,0.6,-555.0,0.71,0.57,0.370,116.77,129.158,13.987,0.25,0.23,0.5,-555.0,14.337,90638.0,930.543,14.344,90635.937,930.368,32112,0.426,930.368,-11854045.0,-1.773,2.56,0.0,0.0,0.0,4.2,0.264
32155,2,32155,43,0.77,0.84,0.421,116.372,129.277,14.308,0.24,0.23,0.5,-555.0,0.100,0.86,0.406,116.281,128.836,14.162,0.24,0.23,0.4,-555.0,14.342,90636.320,930.492,14.363,90630.851,930.831,32155,0.421,930.831,-11872284.0,10.763,1.755,0.0,0.0,0.0,4.2,0.262
32191,2,32191,36,0.506,-1.945,1.184,116.141,129.275,14.177,0.20,0.14,0.11,-555.0,-2.864,-9.375,7.597,115.770,129.362,14.162,0.9,0.20,0.34,-555.0,14.346,90634.742,930.412,14.377,90630.679,930.335,32191,1.184,930.335,-11858558.0,-13.758,2.702,0.0,0.0,0.0,4.8,0.736
32234,2,32234,43,0.509,-1.953,1.187,116.217,129.254,14.104,0.20,0.15,0.12,-548.599,0.78,0.107,0.420,116.807,129.552,13.870,0.19,0.23,0.9,-523.0,14.359,90634.640,930.505,14.395,90640.664,930.559,32234,1.187,930.559,-11807561.0,5.195,1.865,0.0,0.0,0.0,4.15,0.737
32270,2,32270,36,0.506,-1.929,1.203,116.275,129.199,14.60,0.20,0.14,0.12,-548.599,0.78,0.21,0.384,116.442,129.85,14.118,0.21,0.20,0.7,-555.0,14.376,90635.484,930.719,14.400,90639.265,931.501,32270,1.203,931.501,-11764530.0,26.187,1.560,0.0,0.0,0.0,4.2,0.747
32325,2,32325,55,0.506,-1.942,1.203,116.313,129.201,14.57,0.18,0.14,0.11,-548.599,0.71,0.122,0.370,116.267,129.172,13.972,0.19,0.23,0.2,-555.0,14.389,90635.406,930.719,14.413,90635.585,930.368,32325,1.203,930.368,-11698354.0,-20.612,3.620,0.0,0.0,0.0,4.2,0.747
32362,2,32362,37,0.525,-1.935,1.207,116.354,129.266,14.92,0.18,0.14,0.12,-548.599,0.7,0.50,0.384,116.486,129.158,14.337,0.23,0.24,0.7,-555.0,14.401,90637.15,930.780,14.423,90638.914,931.135,32362,1.207,931.135,-11653756.0,20.733,1.616,0.0,0.0,0.0,4.8,0.750
32405,2,32405,43,0.60,0.66,0.413,116.600,129.199,14.33,0.21,0.23,0.7,-548.599,0.64,0.28,0.506,116.997,129.26,13.870,0.24,0.25,0.9,-555.0,14.411,90638.421,930.856,14.423,90637.687,930.719,32405,0.413,930.719,-11636682.0,-9.676,2.409,0.0,0.0,0.0,4.2,0.256
32441,2,32441,36,0.63,0.61,0.419,116.702,129.128,14.30,0.22,0.23,0.6,-555.0,0.93,0.86,0.449,117.319,129.201,13.855,0.22,0.21,0.8,-555.0,14.418,90638.250,930.850,14.432,90639.789,930.528,32441,0.419,930.528,-11651667.0,-5.303,2.189,0.0,0.0,0.0,4.8,0.260
32484,2,32484,43,0.58,0.67,0.426,116.761,129.134,13.992,0.22,0.24,0.7,-555.0,0.57,0.50,0.420,116.734,129.114,13.928,0.23,0.25,0.9,-555.0,14.428,90637.617,930.659,14.450,90636.109,930.543,32484,0.426,930.543,-11669844.0,0.357,1.989,0.0,0.0,0.0,4.2,0.264
32520,2,32520,36,0.47,0.54,0.444,116.828,129.79,14.54,0.23,0.23,0.7,-555.0,0.14,0.57,0.463,116.603,128.895,14.279,0.24,0.20,0.1,-555.0,14.436,90639.46,930.697,14.455,90642.765,930.559,32520,0.444,930.559,-11685527.0,0.442,1.986,0.0,0.0,0.0,4.2,0.276
32565,2,32565,45,0.71,0.61,0.444,116.895,129.96,14.48,0.23,0.22,0.7,-555.0,0.129,0.86,0.384,116.822,129.245,14.308,0.20,0.19,0.7,-555.0,14.445,90638.453,930.562,14.464,90635.929,930.463,32565,0.444,930.463,-11705551.0,-2.138,2.68,0.0,0.0,0.0,4.2,0.276
32601,2,32601,36,0.87,0.64,0.423,116.840,129.3,14.28,0.22,0.21,0.5,-555.0,0.143,0.43,0.399,116.720,128.558,13.767,0.20,0.20,0.3,-555.0,14.452,90638.70,930.534,14.459,90635.750,930.576,32601,0.423,930.576,-11721182.0,3.148,1.913,0.0,0.0,0.0,3.996,0.263
32741,2,32741,140,0.87,0.63,0.436,116.641,128.991,14.39,0.22,0.21,0.5,-555.0,0.93,0.78,0.513,116.325,129.143,13.914,0.22,0.22,0.4,-555.0,14.460,90636.812,930.633,14.473,90633.476,931.22,32741,0.436,931.22,-11781367.0,3.184,1.912,0.0,0.0,0.0,3.996,0.271
32778,2,32778,37,0.107,0.68,0.436,116.536,129.38,13.978,0.21,0.21,0.4,-555.0,0.157,0.78,0.420,116.208,129.348,13.621,0.21,0.22,0.6,-555.0,14.457,90636.421,930.588,14.432,90634.179,930.320,32778,0.436,930.320,-11797512.0,-18.980,3.322,0.0,0.0,0.0,4.8,0.271
33052,2,33052,274,0.130,0.73,0.440,116.577,129.23,13.925,0.22,0.21,0.5,-555.0,0.129,0.78,0.485,116.807,128.821,14.16,0.26,0.21,0.6,-555.0,14.455,90635.757,930.591,14.446,90639.437,930.575,33052,0.440,930.575,-11917664.0,0.932,1.972,0.0,0.0,0.0,4.15,0.273
33089,2,33089,37,0.119,0.70,0.446,116.603,128.889,13.884,0.22,0.21,0.5,-548.599,0.71,0.71,0.413,116.954,128.573,14.104,0.21,0.19,0.6,-523.0,14.446,90636.109,930.684,14.418,90637.687,930.927,33089,0.446,930.927,-11934075.0,9.504,1.778,0.0,0.0,0.0,4.8,0.277
33133,2,33133,44,0.111,0.50,0.522,116.591,129.20,13.914,0.23,0.21,0.6,-548.599,0.107,0.57,0.779,116.661,129.216,13.914,0.21,0.21,0.8,-555.0,14.442,90636.179,930.722,14.441,90636.109,930.767,33133,0.522,930.767,-11955391.0,-3.627,2.122,0.0,0.0,0.0,4.21,0.324
33169,2,33169,36,0.111,0.31,0.502,116.591,129.41,13.978,0.23,0.21,0.6,-548.599,0.93,0.14,0.413,116.325,129.245,14.235,0.25,0.24,0.2,-555.0,14.440,90636.601,930.576,14.464,90635.578,930.289,33169,0.502,930.289,-11973839.0,-13.300,2.663,0.0,0.0,0.0,4.15,0.312
33242,2,33242,73,0.87,0.41,0.506,116.615,129.49,14.42,0.23,0.22,0.6,-548.599,0.35,0.129,0.442,116.325,129.391,13.943,0.19,0.23,0.7,-555.0,14.451,90636.171,930.614,14.487,90632.70,930.512,33242,0.506,930.512,-12010671.0,3.60,1.915,0.0,0.0,0.0,4.15,0.314
33278,2,33278,36,0.101,0.43,0.500,116.688,129.14,13.928,0.22,0.22,0.5,-548.599,0.200,0.86,0.456,117.173,128.646,13.446,0.24,0.24,0.4,-555.0,14.461,90635.296,930.547,14.496,90635.46,930.241,33278,0.500,930.241,-12028809.0,-7.536,2.292,0.0,0.0,0.0,4.15,0.311
33332,2,33332,54,0.106,0.43,0.521,116.562,129.254,13.896,0.22,0.22,0.4,-555.0,0.93,0.71,0.513,116.325,129.772,13.943,0.22,0.19,0.1,-555.0,14.484,90634.734,930.474,14.533,90634.867,930.560,33332,0.521,930.560,-12056404.0,5.920,1.849,0.0,0.0,0.0,4.21,0.323
33370,2,33370,38,0.104,0.90,0.456,116.565,129.383,13.902,0.23,0.23,0.4,-555.0,0.100,0.179,0.456,116.676,129.859,13.943,0.23,0.22,0.8,-555.0,14.502,90634.859,930.605,14.528,90636.796,931.423,33370,0.456,931.423,-12074977.0,22.709,1.594,0.0,0.0,0.0,4.21,0.283
33413,2,33413,43,0.106,0.100,0.453,116.635,129.432,13.855,0.23,0.22,0.5,-555.0,0.100,0.35,0.399,116.676,129.494,14.1,0.25,0.23,0.7,-555.0,14.518,90635.710,930.711,14.547,90639.773,930.816,33413,0.453,930.816,-12094543.0,-14.117,2.734,0.0,0.0,0.0,4.15,0.281
33449,2,33449,36,0.114,0.80,0.447,116.685,129.529,13.931,0.24,0.22,0.5,-555.0,0.78,0.28,0.413,116.574,129.874,14.323,0.24,0.23,0.6,-555.0,14.532,90637.921,930.717,14.556,90643.101,930.546,33449,0.447,930.546,-12110769.0,-7.520,2.291,0.0,0.0,0.0,4.15,0.278
33492,2,33492,43,0.87,0.73,0.457,116.609,129.690,14.63,0.24,0.23,0.5,-555.0,0.64,0.50,0.506,116.793,129.450,14.104,0.23,0.26,0.4,-555.0,14.548,90637.671,930.823,14.579,90633.804,930.769,33492,0.457,930.769,-12130242.0,5.196,1.865,0.0,0.0,0.0,4.21,0.284
33528,2,33528,36,0.89,0.76,0.429,116.691,129.698,14.112,0.24,0.23,0.6,-555.0,0.100,0.86,0.370,116.734,129.815,14.191,0.24,0.22,0.5,-555.0,14.558,90638.789,930.804,14.579,90640.468,930.465,33528,0.429,930.465,-12146209.0,-8.438,2.338,0.0,0.0,0.0,4.21,0.266
33573,2,33573,45,0.97,0.50,0.414,116.799,129.695,14.104,0.25,0.23,0.5,-555.0,0.143,0.50,0.384,117.217,129.845,13.899,0.26,0.20,0.3,-555.0,14.571,90639.484,930.616,14.593,90640.289,930.482,33573,0.414,930.482,-12165199.0,0.378,1.988,0.0,0.0,0.0,4.21,0.257
33609,2,33609,36,0.101,0.54,0.421,116.825,129.772,13.954,0.24,0.23,0.5,-555.0,0.122,0.57,0.434,116.807,129.874,13.256,0.21,0.23,0.7,-555.0,14.581,90638.890,930.510,14.597,90636.781,930.290,33609,0.421,930.290,-12180262.0,-5.335,2.190,0.0,0.0,0.0,4.2,0.262
33750,2,33750,141,0.91,0.61,0.426,116.992,129.678,13.884,0.23,0.23,0.5,-555.0,0.28,0.64,0.434,117.407,129.406,13.972,0.19,0.23,0.5,-555.0,14.592,90638.398,930.408,14.611,90640.648,930.34,33750,0.426,930.34,-12240068.0,-1.814,2.57,0.0,0.0,0.0,4.15,0.264
33786,2,33786,36,0.123,4.157,-1.623,117.109,129.687,14.4,0.23,0.22,0.5,-555.0,0.222,21.47,-6.493,117.377,129.494,14.703,0.24,0.21,0.3,-555.0,14.592,90638.820,930.347,14.579,90635.906,930.465,33786,-1.623,930.465,-12276968.0,11.969,1.735,0.0,0.0,0.0,3.989,-1.9
