millis(),currentState,IMUAcc.acceleration.x,IMUAcc.acceleration.y,IMUAcc.acceleration.z,IMUGyro.gyro.x,IMUGyro.gyro.y,IMUGyro.gyro.z,IMUTher.temperature,BARO.readTemperature,BARO.readPressure,BARO.readAltitude
2320,2,8.45,1.76,0.50,0.-15,0.91,0.70,4.87,22.74,93312.71,689.12
2354,2,8.17,2.9,0.97,0.21,0.29,-1.-6,4.87,7.91,93318.11,689.12
2388,2,9.66,0.89,3.8,0.-16,0.-63,0.-36,4.81,7.92,93314.85,689.12
2422,2,10.22,0.74,0.-23,-1.-86,-3.-55,0.-55,4.81,7.93,93315.92,689.32
2456,2,3.35,2.49,1.59,-1.-51,-5.-40,0.80,4.81,7.93,93311.57,689.3
2491,2,1.22,1.19,-4.-55,-2.-37,-6.-60,0.43,4.81,7.94,93315.91,689.42
2525,2,2.52,-1.-51,-8.-71,-3.-2,-4.-79,2.9,4.81,7.94,93311.55,690.9
2559,2,4.79,3.50,-6.-73,-4.-41,-3.-49,3.76,4.81,7.95,93307.20,689.22
2593,2,4.15,0.-9,-5.-20,-4.-42,-3.-68,4.78,4.75,7.95,93312.63,689.71
2627,2,2.61,2.63,-6.-20,-5.-28,-4.-43,4.53,4.81,7.96,93312.62,689.32
2661,2,3.65,1.65,-6.-68,-4.-59,-2.-47,4.59,4.81,7.96,93321.32,688.93
2695,2,8.28,-2.-72,-4.-7,-4.-5,0.28,4.17,4.81,7.97,93319.14,689.52
2729,2,7.1,-2.-28,-4.-10,-3.-34,0.-84,3.62,4.75,7.97,93320.22,689.13
2764,2,0.21,1.41,-9.-21,-2.-50,-1.-68,3.34,4.81,7.97,93323.48,689.13
2798,2,1.87,1.96,-11.-71,-3.-96,4.94,3.19,4.81,7.97,93312.60,688.55
2832,2,22.8,3.79,0.6,-2.-76,10.46,2.10,4.68,7.98,93320.21,689.3
2866,2,15.71,-4.-45,3.23,0.-36,1.3,2.76,4.75,7.98,93320.21,688.65
2900,2,18.43,-3.-89,0.-76,-1.-82,0.52,0.24,4.75,7.98,93316.95,688.74
2934,2,13.54,-1.-55,-6.-77,-2.-43,-1.-98,-2.-71,4.75,7.99,93322.39,687.97
2968,2,11.3,-1.-69,-4.-20,-1.-62,-6.-21,0.-88,4.75,7.98,93320.21,688.94
3003,2,9.76,-2.-40,-2.-64,0.56,-8.-31,1.0,4.75,7.98,93323.47,688.26
3037,2,14.55,-1.-16,-3.-46,0.16,0.36,-1.-75,4.68,7.98,93324.57,688.55
3071,2,8.34,0.24,-8.-26,0.34,0.17,-1.-6,4.75,7.97,93318.6,688.35
3105,2,5.2,0.-44,-6.-61,3.34,4.65,0.-82,4.68,7.96,93322.41,688.64
3139,2,13.16,4.18,0.67,3.95,9.0,3.44,4.68,7.96,93320.25,688.74
3173,2,16.23,-6.-45,0.57,3.2,5.28,3.39,4.68,7.95,93316.99,688.83
3207,2,12.36,-3.-87,-7.0,2.13,-2.-78,-1.-72,4.62,7.94,93313.75,688.74
3241,2,-2.-50,0.-31,-12.-30,0.-18,-6.-7,-3.-24,4.68,7.94,93322.43,688.74
3276,2,6.3,-5.-86,5.30,0.92,3.25,0.16,4.68,7.94,93319.17,688.74
3310,2,12.4,1.6,1.1,-2.-25,4.50,-1.-55,4.75,7.94,93323.52,689.3
3345,2,11.86,0.24,5.51,-4.0,5.18,2.0,4.68,7.94,93322.42,689.13
3379,2,8.1,-4.-59,5.51,0.-35,1.88,3.86,4.68,7.95,93314.82,688.64
3413,2,13.1,-3.-13,7.82,0.29,2.75,1.58,4.68,7.95,93316.99,689.32
3447,2,12.58,0.-67,9.0,0.33,0.98,0.-59,4.62,7.95,93323.50,688.26
3481,2,9.54,-2.-79,-7.-2,0.23,0.15,0.-65,4.68,7.97,93320.24,689.3
3516,2,18.80,-2.-11,-3.-65,0.-72,0.-82,0.-12,4.62,7.96,93318.6,689.3
3550,2,5.14,-2.-1,14.73,2.16,-4.-10,0.41,4.62,7.97,93325.66,688.93
3584,2,3.34,-13.-28,5.21,-1.-23,1.97,4.20,4.62,7.98,93318.4,689.32
3618,2,10.97,2.16,2.51,-1.-13,3.63,-1.-92,4.62,7.98,93322.39,688.74
3652,2,7.6,-3.-29,8.35,3.34,0.-60,0.29,4.62,7.99,93320.21,688.65
3686,2,3.87,-5.-91,11.70,5.63,0.0,1.70,4.62,7.99,93322.37,688.45
3720,2,10.66,-5.-95,12.70,4.63,1.80,1.19,4.56,8.0,93321.28,688.94
3754,2,9.65,-6.-80,9.2,5.79,-1.-43,0.41,4.62,8.0,93328.89,688.55
3789,2,4.46,-6.-57,0.82,6.13,-4.-97,1.10,4.62,8.1,93323.44,688.36
3823,2,12.13,-1.-47,3.77,3.90,0.13,2.35,4.62,8.1,93316.92,689.4
3857,2,10.51,-7.-26,-1.-52,2.74,-4.-99,2.11,4.62,8.1,93318.0,689.33
3891,2,3.15,-2.-31,-8.-81,0.94,-3.-56,-2.-45,4.62,8.2,93323.42,688.55
3925,2,10.27,2.54,6.81,0.99,0.1,-2.-20,4.62,8.2,93313.64,689.13
3959,2,8.11,3.74,-1.-88,0.-4,0.-59,0.-24,4.56,8.3,93321.25,689.23
3993,2,6.82,2.52,-6.-45,0.-69,0.82,0.10,4.56,8.2,93318.0,689.23
4027,2,13.87,1.95,5.58,2.30,1.2,-3.-28,4.56,8.1,93320.18,689.4
4062,2,10.5,-2.-67,4.68,3.96,-1.-76,0.38,4.56,8.0,93321.28,688.65
4096,2,9.48,-1.-70,3.20,3.30,0.30,0.-78,4.56,7.98,93314.77,688.55
4130,2,12.97,2.0,6.68,2.97,0.90,0.18,4.56,7.98,93318.5,688.84
4164,2,7.49,2.71,9.49,4.44,0.19,0.4,4.56,7.96,93316.97,689.3
4198,2,5.17,-1.-99,8.23,2.28,0.-48,2.27,4.62,7.97,93314.81,688.74
4232,2,7.44,0.71,-3.-35,1.14,2.83,0.-44,4.62,7.96,93324.60,688.74
4266,2,19.13,-10.-21,-6.-54,2.55,5.50,-4.-42,4.56,7.95,93315.89,688.64
4300,2,21.42,11.93,3.80,-1.-8,2.88,-2.-75,4.62,7.94,93314.82,688.84
4335,2,13.72,2.32,8.40,2.31,-1.-57,3.58,4.62,7.94,93317.0,689.32
4370,2,1.76,-2.-62,0.-30,0.75,-2.-11,0.-70,4.62,7.94,93324.62,688.64
4404,2,2.50,-7.-5,-5.-64,0.-70,1.2,-2.-16,4.62,7.92,93320.27,689.32
4438,2,9.9,-6.-33,1.21,-2.-66,2.42,0.-13,4.56,7.93,93317.1,689.32
4472,2,7.48,0.-51,3.77,-4.-59,-2.-93,2.62,4.62,7.93,93312.67,689.51
4506,2,7.76,3.13,0.-4,-3.-17,-1.-73,0.18,4.62,7.92,93323.53,688.83
4540,2,11.31,6.8,2.97,-2.-80,-1.-48,0.-48,4.62,7.92,93314.85,689.12
4575,2,5.80,5.56,3.74,-2.-45,-4.-80,0.53,4.68,7.93,93317.2,689.32
4609,2,6.63,3.16,4.70,-2.-2,-2.-97,0.46,4.56,7.93,93319.21,688.83
4643,2,7.5,2.82,5.19,-1.-46,-2.-50,0.-29,4.56,7.93,93323.55,688.64
4677,2,7.80,1.50,3.95,0.-65,-1.-32,0.-37,4.50,7.90,93323.56,689.22
4711,2,11.4,1.44,4.44,0.-47,1.56,0.-28,4.56,7.90,93321.39,688.73
4745,2,11.64,1.15,2.98,0.-54,0.31,0.27,4.56,7.89,93324.66,689.41
4779,2,9.29,0.59,0.46,0.-31,0.-79,0.-60,4.56,7.88,93318.15,689.2
4813,2,10.9,1.13,2.78,0.-44,0.-65,0.-52,4.62,7.87,93318.17,688.92
4848,2,10.30,3.60,3.52,0.-19,0.-94,0.-52,4.56,7.87,93317.8,689.12
4882,2,10.29,0.81,0.54,0.-4,0.-38,0.-38,4.56,7.86,93312.75,689.31
4916,2,10.49,2.41,5.84,0.-9,0.3,0.-72,4.50,7.87,93311.66,689.2
4950,2,8.27,1.5,4.79,1.50,0.-87,-1.-2,4.56,7.84,93322.54,688.73
4984,2,6.15,0.86,1.5,1.67,0.91,0.22,4.50,7.84,93323.64,688.83
5018,2,8.98,0.25,0.14,2.25,3.18,0.20,4.62,7.83,93322.55,688.15
5052,2,10.32,0.32,3.25,4.43,2.11,0.86,4.56,7.83,93323.64,688.82
5086,2,10.12,-2.-3,4.2,5.19,-2.-63,2.49,4.50,7.83,93317.13,688.34
5121,2,8.37,-2.-53,-2.0,2.70,-3.-12,1.0,4.50,7.81,93321.48,688.92
5155,2,9.79,0.-16,-1.-82,1.47,0.40,0.-3,4.50,7.81,93318.22,688.82
5189,2,10.35,0.-66,0.66,2.56,0.-57,0.64,4.50,7.81,93314.97,688.63
5223,2,9.36,0.42,1.48,2.40,-1.-43,0.91,4.50,7.80,93314.99,689.21
5257,2,9.30,-3.-26,-2.-44,1.28,-2.0,0.7,4.56,7.78,93317.17,689.30
5291,2,6.57,-1.-27,-4.-9,-1.-41,0.-32,-1.-62,4.50,7.77,93321.53,689.40
5325,2,9.4,0.34,-3.-13,-1.-4,1.78,0.6,4.56,7.76,93319.36,689.21
5359,2,6.27,-2.-7,1.45,0.-54,1.38,1.6,4.56,7.75,93321.54,689.49
5395,2,4.91,0.65,-2.-6,-2.-71,1.59,0.-86,4.56,7.75,93319.38,689.1
5429,2,9.6,-1.-42,-1.-55,-2.-57,4.4,0.-40,4.56,7.74,93317.21,689.1
5463,2,9.98,0.57,7.81,-2.-78,3.75,0.87,4.56,7.74,93322.65,689.1
5497,2,8.79,-2.-69,8.11,-2.-14,0.50,1.57,4.56,7.73,93324.82,688.72
5531,2,8.28,-7.-17,7.36,-2.-39,0.-39,0.54,4.56,7.73,93320.49,688.23
5565,2,12.92,-1.-92,7.70,-4.-14,2.48,-2.-53,4.56,7.72,93325.92,688.62
5599,2,15.2,7.74,14.83,-4.-55,3.66,-4.-16,4.56,7.71,93324.83,688.81
5633,2,12.42,8.11,15.8,-2.-75,0.83,-1.-69,4.56,7.71,93315.7,689.10
5668,2,10.19,-1.-15,13.97,1.53,-3.-1,2.11,4.50,7.71,93325.92,688.33
5702,2,5.94,-2.-23,-1.-83,1.39,-5.-41,0.-18,4.56,7.71,93331.36,689.1
5736,2,8.11,0.-84,0.1,1.71,-3.-27,-2.-97,4.56,7.71,93319.42,688.33
5770,2,6.34,-1.-19,0.-64,1.10,-6.-23,1.8,4.56,7.70,93321.60,688.14
5804,2,9.56,0.64,0.-96,-1.-1,-4.-54,0.81,4.50,7.70,93321.60,688.14
5838,2,10.39,-2.-19,0.91,-3.-64,-4.-18,1.8,4.50,7.69,93319.42,688.72
5872,2,7.0,-2.-35,-2.-96,-3.-95,-6.-14,-1.-74,4.50,7.69,93322.68,688.72
5907,2,6.31,1.25,-9.-39,-1.-69,-5.-13,-2.-6,4.50,7.69,93323.76,688.52
5941,2,6.43,1.60,-8.-3,0.7,0.94,-1.-2,4.56,7.70,93321.60,688.43
5975,2,7.24,3.18,-6.-83,-1.-23,4.17,1.8,4.50,7.69,93319.42,688.52
6009,2,16.0,0.-29,0.-43,0.-60,3.29,2.69,4.56,7.71,93317.24,688.72
6043,2,8.68,-1.-77,-4.-40,0.77,-4.-55,-1.-73,4.56,7.71,93327.2,689.20
6077,2,7.64,1.41,-4.-65,0.-91,0.-61,0.-78,4.50,7.71,93328.10,688.91
6111,2,8.39,1.39,-3.-30,-1.-53,-1.-31,-1.-2,4.56,7.72,93323.75,689.11
6145,2,4.80,2.52,-6.-66,-1.-61,0.-59,0.-15,4.56,7.72,93320.49,688.33
6180,2,6.59,3.5,-7.-30,-2.-18,1.66,0.16,4.56,7.73,93326.99,688.62
6214,2,8.85,2.91,-3.-36,-2.-40,3.53,1.1,4.50,7.74,93322.64,688.91
6248,2,9.63,6.33,0.16,-1.-16,1.47,0.-19,4.56,7.74,93321.54,689.1
6282,2,7.91,2.61,-2.-32,0.-9,1.0,0.94,4.50,7.74,93319.37,688.91
6316,2,9.41,1.70,-3.-15,-2.-13,1.50,0.35,4.50,7.75,93319.37,688.43
6350,2,8.52,2.43,-1.-11,-2.-92,0.73,1.40,4.56,7.76,93324.80,688.92
6384,2,9.44,2.77,0.-75,0.-69,0.-34,0.90,4.56,7.76,93323.71,688.53
6420,2,13.63,2.17,-1.-93,-1.-10,0.4,0.20,4.62,7.76,93320.45,688.62
6454,2,12.77,6.11,0.44,-2.-3,-1.-23,-1.-75,4.56,7.76,93317.18,688.62
6488,2,7.68,4.92,0.-98,0.-41,-1.-83,-1.-35,4.62,7.77,93324.78,689.21
6522,2,5.65,3.32,-1.0,0.-1,0.6,0.41,4.56,7.77,93315.0,688.92
6556,2,7.47,4.93,0.-59,0.54,1.97,1.98,4.62,7.78,93320.42,689.30
6590,2,12.70,-6.-95,0.-98,1.72,3.87,0.78,4.56,7.79,93320.42,688.5
6624,2,8.25,7.6,1.37,0.-82,0.9,1.0,4.50,7.79,93314.99,688.72
6658,2,10.87,0.-51,-5.-20,1.2,0.3,0.95,4.50,7.79,93317.15,688.82
6693,2,9.85,3.3,1.85,0.0,1.17,-1.-11,4.56,7.80,93324.75,688.24
6727,2,10.12,4.87,3.8,0.54,0.-27,0.-78,4.56,7.81,93320.41,688.34
6761,2,9.44,-1.-12,0.-20,0.62,0.-97,0.-26,4.56,7.80,93322.58,688.34
6795,2,8.64,3.50,1.76,0.9,0.-96,0.0,4.50,7.80,93326.92,688.24
6829,2,8.45,2.45,1.10,0.50,0.57,0.43,4.50,7.81,93325.84,688.44
6863,2,8.27,2.31,-1.-19,0.16,0.-81,0.33,4.50,7.81,93330.17,688.82
6897,2,12.74,3.78,3.75,0.15,0.-22,0.-21,4.56,7.81,93323.66,688.92
6931,2,7.12,2.2,0.-50,0.59,0.-75,0.1,4.50,7.81,93322.57,689.11
6966,2,9.4,2.18,-1.-39,0.0,0.-20,0.41,4.50,7.80,93325.84,688.63
7000,2,11.6,2.62,1.70,0.17,-1.-55,0.-61,4.56,7.80,93324.75,688.63
7034,2,7.76,2.20,-1.-46,0.64,-1.-81,0.-88,4.56,7.80,93320.41,688.92
7068,2,6.41,1.66,-1.-42,0.43,0.-80,0.-42,4.50,7.80,93324.75,688.15
7102,2,7.26,2.62,-2.-20,0.43,0.31,1.43,4.56,7.80,93319.33,688.72
7136,2,14.7,3.23,0.88,0.-3,1.26,0.77,4.56,7.79,93325.85,688.82
7170,2,10.44,3.86,0.-90,0.33,0.-73,0.-32,4.56,7.78,93318.25,688.63
7204,2,9.67,3.64,-2.-7,0.13,0.-49,0.-11,4.50,7.77,93325.86,688.72
7239,2,8.20,2.72,-1.-57,0.-43,0.-24,0.24,4.56,7.77,93319.34,688.24
7273,2,9.62,2.58,0.-55,0.-34,0.2,0.60,4.56,7.78,93318.27,688.34
7307,2,9.75,-1.-6,0.-13,0.31,0.-38,0.1,4.50,7.77,93318.27,688.72
7341,2,9.24,1.81,-3.-19,0.17,0.-25,0.37,4.56,7.76,93322.62,688.53
7375,2,10.59,2.57,0.-70,0.-28,0.2,0.43,4.56,7.77,93329.15,689.11
7409,2,9.26,1.84,0.-99,0.3,0.-79,0.11,4.56,7.75,93324.80,688.33
7444,2,8.91,1.30,-2.-33,0.39,0.-51,0.21,4.56,7.76,93317.19,688.33
7478,2,11.0,1.83,0.23,0.55,0.10,0.-24,4.50,7.75,93321.54,688.53
7513,2,9.63,1.51,-1.-75,0.56,0.-32,0.-45,4.50,7.74,93322.64,689.11
7547,2,7.87,1.63,-3.-60,0.4,0.-19,0.8,4.50,7.74,93319.39,688.72
7581,2,9.76,1.93,-2.-29,0.-39,0.18,0.41,4.56,7.74,93325.91,688.62
7615,2,11.30,1.97,0.24,0.37,0.-3,0.-70,4.50,7.72,93324.82,689.1
7649,2,8.48,0.53,-1.-45,0.83,0.-79,0.-98,4.50,7.72,93324.83,688.24
7683,2,8.82,2.67,-2.-89,0.45,0.-3,0.-51,4.50,7.72,93321.57,688.33
7717,2,10.17,3.40,-1.-51,0.-20,0.66,0.21,4.56,7.72,93323.75,688.72
7751,2,10.27,3.90,-2.-26,0.9,0.-18,0.-31,4.56,7.71,93318.33,688.43
7786,2,7.31,2.37,-4.-4,0.33,-1.-4,0.-10,4.56,7.70,93321.58,688.81
7820,2,10.7,2.50,-1.-48,0.31,0.72,0.38,4.50,7.70,93317.25,688.43
7854,2,7.60,0.23,-3.-32,0.25,0.-3,0.99,4.50,7.68,93320.52,688.81
7888,2,9.85,2.41,-1.-72,0.-22,0.42,0.63,4.50,7.68,93323.78,689.10
7922,2,11.16,2.25,0.-43,0.34,0.5,0.-1,4.56,7.67,93324.87,688.62
7956,2,10.7,1.93,-2.-22,0.51,0.-35,0.-32,4.56,7.67,93322.71,688.42
7990,2,6.21,1.23,-2.-42,0.9,0.-95,1.15,4.43,7.67,93322.71,688.91
8025,2,11.95,1.19,0.33,0.11,0.1,0.46,4.50,7.65,93328.14,688.71
8059,2,10.2,1.17,-1.-35,0.46,0.-84,0.-37,4.56,7.66,93322.71,688.91
8093,2,8.89,1.92,-3.-9,0.-2,0.-42,0.-3,4.50,7.65,93328.14,689.10
8127,2,10.26,2.34,-2.-5,0.-14,0.7,0.33,4.50,7.64,93323.82,689.10
8161,2,9.1,0.67,-2.-39,0.8,0.-57,0.21,4.50,7.65,93322.72,688.71
8195,2,8.48,0.76,-2.-78,0.-14,0.-32,0.10,4.50,7.64,93329.25,688.52
8229,2,9.93,-3.-16,-2.-51,0.-12,0.16,0.2,4.50,7.65,93330.32,688.23
8263,2,9.23,2.48,0.-56,0.12,0.-9,0.22,4.50,7.65,93320.56,688.33
8298,2,9.44,0.61,-2.-62,0.62,0.-27,0.-45,4.43,7.64,93320.56,688.52
8332,2,9.39,2.2,-2.-29,0.-10,0.-11,0.-20,4.43,7.64,93325.99,688.42
8366,2,10.96,1.66,-1.-24,0.17,0.20,0.-7,4.50,7.64,93328.16,688.23
8400,2,8.60,1.58,-3.-69,0.6,0.-46,0.-38,4.43,7.63,93323.82,688.52
8434,2,9.39,-3.-2,-2.-86,-1.-10,0.-75,0.-51,4.56,7.64,93324.90,688.81
8469,2,9.26,2.38,-2.-39,0.-8,0.69,0.37,4.43,7.62,93320.57,688.52
8503,2,9.62,1.47,-3.-8,0.-2,0.43,0.25,4.43,7.63,93319.46,688.61
8537,2,9.53,1.72,-2.-23,0.-27,0.-27,0.-10,4.43,7.63,93324.90,688.42
8572,2,8.83,1.48,-2.-37,0.-31,0.-19,0.-8,4.43,7.63,93322.73,689.0
8606,2,8.99,1.52,-3.-1,0.-75,0.29,0.68,4.43,7.64,93319.47,688.23
8640,2,11.54,1.21,0.-91,0.-83,0.62,0.54,4.43,7.63,93319.47,688.81
8674,2,9.13,1.55,0.-66,0.-55,0.-9,0.23,4.43,7.63,93326.0,688.81
8708,2,9.37,0.79,-2.-5,0.-11,0.50,0.58,4.37,7.63,93326.0,688.32
8742,2,9.48,0.-51,-4.-85,0.-40,0.38,0.41,4.50,7.63,93330.34,688.42
8776,2,9.51,1.34,0.-14,0.-83,0.-16,0.0,4.37,7.63,93322.73,688.81
8810,2,11.57,0.-66,1.74,0.70,0.-13,0.-43,4.43,7.63,93322.74,688.13
8845,2,8.1,0.59,-2.-53,1.46,0.-92,0.-78,4.37,7.62,93322.73,688.42
8879,2,9.59,2.57,-4.-82,0.67,0.61,0.6,4.37,7.62,93311.86,688.81
8913,2,5.46,2.10,-4.-33,0.-63,0.68,0.47,4.50,7.64,93317.30,689.0
8947,2,11.12,-1.-38,1.91,0.-1,0.5,0.61,4.37,7.64,93319.47,688.42
8981,2,12.0,0.-49,2.17,0.54,0.-40,-1.-41,4.31,7.64,93321.65,688.81
9015,2,6.81,2.49,-4.-56,0.87,0.-87,0.-50,4.37,7.64,93327.8,689.0
9049,2,9.38,3.68,-4.-11,0.2,0.13,0.38,4.31,7.63,93317.29,688.33
9083,2,11.80,2.88,0.-75,0.-30,0.48,0.-12,4.37,7.63,93318.39,688.81
9118,2,10.68,1.20,0.36,0.32,0.-48,0.-88,4.37,7.63,93323.82,688.81
9152,2,8.64,1.54,-1.-98,0.50,0.-46,0.-67,4.31,7.64,93307.53,688.4
9186,2,8.33,2.47,-3.-74,0.25,0.-14,0.-19,4.31,7.64,93318.39,688.91
9220,2,11.10,1.28,0.-10,0.0,0.56,0.10,4.37,7.64,93322.73,688.23
9254,2,8.49,0.0,-1.-65,0.63,0.-57,0.-5,4.43,7.64,93321.64,688.81
9288,2,9.86,0.43,-2.-25,0.33,0.-58,0.-37,4.37,7.64,93322.73,689.20
9322,2,9.1,1.64,-2.-83,0.-64,0.-11,0.67,4.31,7.64,93322.72,688.32
9357,2,11.49,0.42,1.71,0.20,0.34,0.14,4.37,7.65,93320.56,688.91
9391,2,7.89,0.16,-3.-23,1.9,-1.-38,0.-87,4.37,7.63,93319.46,688.62
9425,2,9.57,3.2,-2.-88,0.31,0.-67,0.-78,4.37,7.63,93323.82,688.23
9459,2,8.91,3.8,-3.-7,0.3,0.4,0.-15,4.37,7.64,93320.56,688.71
9494,2,9.24,2.33,-3.0,0.0,0.10,0.0,4.37,7.64,93322.73,688.91
9528,2,10.99,-6.-6,1.87,0.-38,0.-19,0.1,4.37,7.63,93324.90,688.23
9562,2,7.92,2.63,-3.-43,0.19,0.-30,0.-10,4.43,7.63,93320.57,688.52
9596,2,10.88,2.3,-1.-36,0.21,0.59,0.12,4.31,7.62,93324.91,689.10
9631,2,9.4,2.2,-2.-19,0.0,0.-25,0.-4,4.37,7.62,93319.48,688.90
9665,2,9.24,2.5,-2.-43,0.30,0.-11,0.-18,4.25,7.60,93318.40,689.10
9699,2,8.73,2.10,-3.-8,0.14,0.-26,0.-27,4.37,7.60,93322.75,689.0
9733,2,9.56,2.63,-2.-84,0.-10,0.-8,0.0,4.37,7.62,93316.23,688.90
9767,2,9.91,2.24,-2.-6,0.7,0.10,0.-2,4.37,7.60,93323.83,688.42
9801,2,8.96,2.30,-3.-9,0.28,0.-31,0.-30,4.31,7.61,93326.1,688.3
9835,2,8.16,1.85,-3.-66,0.8,0.35,0.28,4.31,7.61,93318.40,688.81
9869,2,9.61,2.29,-1.-82,0.19,0.-4,0.8,4.25,7.61,93316.22,688.61
9904,2,10.38,2.71,-2.-4,0.31,0.-20,0.6,4.25,7.61,93320.58,688.81
9938,2,10.46,2.5,-1.-67,0.-17,0.-6,0.20,4.25,7.60,93324.92,688.90
9972,2,9.34,2.52,-2.-31,0.-32,0.-23,0.12,4.25,7.60,93323.85,688.90
10006,2,9.48,2.32,-2.-24,0.-14,0.6,0.31,4.31,7.61,93327.10,688.61
10049,2,8.98,1.78,-3.-7,0.-2,0.4,0.19,4.31,7.60,93322.76,688.90
10083,2,9.8,2.34,-2.-90,0.-38,0.-11,0.24,4.25,7.60,93320.59,688.61
10117,2,10.25,2.73,-2.-93,0.-99,0.47,1.8,4.31,7.60,93323.85,688.32
10151,2,10.68,0.57,0.-45,0.-74,0.95,1.6,4.25,7.60,93318.42,688.71
10187,2,11.74,0.58,0.0,0.15,0.-13,0.-10,4.31,7.59,93319.50,688.81
10221,2,8.77,1.14,-2.-44,0.33,0.-86,0.-69,4.31,7.60,93318.42,688.52
10255,2,8.90,1.94,-2.-79,0.-8,0.23,0.24,4.31,7.60,93320.59,688.61
10289,2,10.73,1.84,-1.-34,0.0,0.29,0.18,4.18,7.60,93321.67,688.61
10323,2,8.43,0.13,-1.-61,0.51,-1.-48,0.-70,4.25,7.60,93318.42,688.61
10357,2,5.81,0.25,-3.-29,0.83,-2.-55,0.-6,4.25,7.60,93320.59,688.61
10391,2,8.97,1.21,-4.-79,0.-23,-1.-53,0.36,4.25,7.60,93319.50,688.13
10425,2,12.18,1.38,-3.-92,0.-12,0.-72,0.-1,4.25,7.60,93322.76,688.52
10460,2,8.10,3.23,-4.-68,0.-14,0.-73,0.16,4.31,7.60,93324.93,688.90
10495,2,8.42,2.91,-4.-46,0.-17,0.-8,0.75,4.25,7.59,93322.76,688.90
10529,2,8.35,1.92,-5.-83,0.-38,0.8,1.12,4.25,7.59,93321.67,688.71
10563,2,7.55,1.46,-5.-37,0.-69,0.32,1.46,4.31,7.60,93319.50,688.52
10597,2,9.40,1.34,-4.-36,0.-82,0.64,0.80,4.25,7.60,93322.76,689.10
10631,2,5.82,2.67,-7.-57,0.16,2.29,0.61,4.18,7.60,93327.10,688.71
10665,2,6.91,0.82,-6.-3,0.48,4.94,1.4,4.25,7.60,93320.60,689.19
10701,2,7.30,-7.-9,0.56,-1.-50,0.-88,1.86,4.18,7.60,93318.42,688.90
10735,2,7.20,3.7,16.30,4.50,0.-98,-3.-69,4.25,7.59,93321.68,689.0
10769,2,4.52,-2.-50,0.-12,1.71,-8.-90,-3.-27,4.12,7.58,93318.42,689.39
10803,2,5.15,0.-78,-3.-85,1.7,-7.-6,-5.-54,4.18,7.58,93323.86,689.19
10837,2,6.23,2.61,-8.-26,2.23,-4.-6,-5.-99,4.18,7.57,93321.69,689.48
10871,2,3.39,4.17,-11.-59,2.22,0.-41,-3.-97,4.18,7.56,93321.70,688.71
10905,2,13.41,3.30,-5.-14,0.86,1.43,-2.-37,4.18,7.57,93317.35,688.90
10939,2,8.47,9.86,-7.-77,-2.-24,0.81,-1.-99,4.25,7.56,93322.78,688.61
10974,2,4.86,5.57,0.-68,-2.-5,0.69,0.-8,4.25,7.56,93320.61,688.90
11008,2,8.78,7.54,-23.-86,1.81,2.1,2.39,4.18,7.57,93318.43,688.90
11042,2,7.13,0.54,-5.-15,-1.-56,1.97,-1.-15,4.25,7.57,93324.96,688.71
11076,2,7.69,5.43,-6.-81,0.-92,0.44,0.43,4.25,7.57,93323.86,689.0
11110,2,6.38,2.62,-6.-33,0.78,4.25,2.7,4.25,7.58,93327.12,689.9
11144,2,9.0,5.16,-4.-21,1.24,4.90,2.69,4.25,7.58,93326.3,688.32
11178,2,4.53,0.87,0.-94,0.75,5.95,2.55,4.25,7.58,93319.52,687.93
11213,2,0.-42,-1.-3,1.45,-2.-62,5.9,-4.-35,4.18,7.58,93326.3,688.42
11247,2,9.98,11.4,-13.-52,1.19,-9.-1,5.0,4.25,7.58,93315.17,688.80
11281,2,13.91,-3.-22,1.1,0.-2,1.72,5.32,4.18,7.58,93318.42,688.42
11315,2,9.6,1.79,0.18,0.53,0.-40,-1.-54,4.18,7.58,93318.42,688.32
11349,2,7.57,2.76,0.-93,0.4,0.-16,0.-96,4.18,7.58,93320.60,688.71
11383,2,10.63,1.68,0.-9,0.5,0.-7,0.20,4.18,7.57,93327.12,688.90
11417,2,9.60,2.32,0.-9,0.8,0.-11,0.-16,4.25,7.58,93324.95,688.3
11451,2,10.18,1.84,0.14,0.14,0.-12,0.-26,4.12,7.58,93324.94,687.93
11486,2,9.81,2.84,0.17,0.54,0.-14,0.-82,4.18,7.58,93322.78,688.42
11521,2,9.15,2.79,0.-93,0.75,0.-10,0.-81,4.25,7.58,93330.38,689.9
11555,2,9.11,3.32,0.41,0.-17,0.7,0.15,4.18,7.58,93321.68,687.93
11589,2,9.77,2.33,0.-10,0.-11,0.-5,0.40,4.25,7.58,93327.11,687.93
11623,2,9.92,2.31,0.0,0.-3,0.-8,0.2,4.25,7.59,93328.21,688.22
11657,2,9.64,2.46,0.1,0.0,0.-10,0.-15,4.18,7.58,93326.3,688.61
11691,2,9.50,2.64,0.0,0.7,0.-11,0.-20,4.18,7.59,93323.85,688.42
11725,2,9.51,2.73,0.-14,0.9,0.-11,0.-9,4.25,7.58,93321.68,688.22
11760,2,9.61,2.68,0.-4,0.6,0.-10,0.-11,4.25,7.58,93327.12,688.90
11794,2,9.60,2.67,0.-4,0.7,0.-10,0.-15,4.18,7.58,93316.26,687.93
11828,2,9.26,2.90,0.-29,0.4,0.-9,0.-9,4.18,7.58,93323.86,688.61
11862,2,9.57,2.70,0.0,0.-4,0.-5,0.15,4.18,7.58,93327.12,688.52
11896,2,9.84,2.35,0.15,0.0,0.-6,0.12,4.18,7.58,93311.92,688.80
11930,2,9.61,2.67,0.-8,0.9,0.-12,0.-14,4.18,7.58,93324.95,688.71
11964,2,9.50,2.64,0.-1,0.7,0.-10,0.-15,4.18,7.58,93323.85,688.3
11998,2,9.53,2.64,0.-3,0.7,0.-9,0.-4,4.18,7.58,93326.3,688.32
12033,2,9.51,2.71,0.-15,0.5,0.-9,0.0,4.25,7.57,93326.3,688.71
12067,2,9.63,2.61,0.7,0.2,0.-7,0.2,4.25,7.57,93324.95,689.0
12101,2,9.59,2.62,0.-11,0.6,0.-9,0.0,4.25,7.59,93324.95,688.52
12135,2,9.60,2.65,0.-4,0.3,0.-8,0.0,4.31,7.57,93319.52,688.42
12169,2,9.61,2.59,0.-13,0.8,0.-10,0.-4,4.25,7.57,93324.96,688.90
12203,2,9.60,2.59,0.-3,0.2,0.-7,0.1,4.31,7.58,93317.35,688.80
12237,2,9.57,2.58,0.2,0.3,0.-8,0.0,4.25,7.57,93323.85,688.80
12271,2,9.64,2.53,0.0,0.3,0.-8,0.0,4.31,7.58,93328.21,687.93
12306,2,9.59,2.52,0.4,0.4,0.-9,0.-2,4.25,7.57,93323.86,689.0
12340,2,9.72,2.42,0.7,0.8,0.-10,0.-5,4.37,7.58,93321.69,688.32
12374,2,9.48,2.70,0.-5,0.9,0.-10,0.-13,4.25,7.57,93327.12,688.80
12408,2,9.68,2.54,0.0,0.4,0.-9,0.-2,4.31,7.57,93326.3,688.52
12442,2,9.62,2.61,0.-4,0.5,0.-9,0.-6,4.31,7.58,93329.29,688.80
12476,2,9.61,2.59,0.1,0.4,0.-10,0.-11,4.18,7.58,93320.60,688.71
12510,2,9.52,2.61,0.-8,0.6,0.-10,0.-13,4.37,7.59,93323.86,688.71
12545,2,9.62,2.55,0.-8,0.8,0.-8,0.-5,4.37,7.57,93322.78,689.9
12580,2,9.50,2.78,0.-14,0.9,0.-8,0.-6,4.31,7.57,93327.12,688.80
12614,2,9.66,2.61,0.-11,0.2,0.-6,0.2,4.31,7.59,93323.86,688.22
12648,2,9.57,2.64,0.-8,0.2,0.-7,0.-1,4.31,7.56,93319.52,688.42
12682,2,9.61,2.55,0.-6,0.1,0.-7,0.-5,4.25,7.58,93320.60,688.61
12716,2,9.58,2.59,0.-10,0.3,0.-9,0.-8,4.31,7.58,93324.95,688.22
12750,2,9.63,2.59,0.-9,0.3,0.-9,0.-11,4.31,7.58,93323.85,688.32
12784,2,9.56,2.64,0.-6,0.4,0.-10,0.-19,4.25,7.59,93317.35,688.32
12818,2,9.38,2.99,0.-14,0.6,0.-10,0.-13,4.31,7.58,93323.85,689.0
12853,2,9.63,2.75,0.-11,0.5,0.-8,0.-8,4.25,7.59,93330.38,688.32
12887,2,9.31,2.79,0.-8,0.0,0.-6,0.-7,4.25,7.58,93321.68,688.22
12921,2,9.40,3.2,0.-13,0.-2,0.-5,0.18,4.25,7.58,93320.60,688.52
12955,2,9.64,2.62,0.-2,0.-13,0.-6,0.33,4.25,7.58,93324.96,688.22
12989,2,9.90,2.40,0.11,0.-6,0.-8,0.12,4.18,7.58,93320.60,688.13
13023,2,9.61,2.50,0.-3,0.2,0.-9,0.-3,4.25,7.58,93326.3,688.61
13057,2,9.50,2.65,0.-2,0.6,0.-10,0.0,4.18,7.57,93318.43,688.51
13091,2,9.63,2.48,0.-2,0.7,0.-10,0.-9,4.25,7.58,93328.21,688.13
13126,2,9.68,2.47,0.-7,0.10,0.-10,0.-8,4.18,7.58,93322.78,688.32
13160,2,9.55,2.55,0.-4,0.12,0.-9,0.-12,4.18,7.58,93322.78,689.0
13194,2,9.64,2.56,0.-2,0.12,0.-8,0.-6,4.18,7.57,93327.12,688.42
13228,2,9.65,2.69,0.-22,0.12,0.-9,0.-14,4.12,7.57,93326.3,688.71
13262,2,9.67,2.63,0.-12,0.3,0.-9,0.-18,4.18,7.57,93322.78,689.19
13296,2,9.48,2.76,0.-10,0.2,0.-8,0.-18,4.18,7.56,93323.86,688.3
13330,2,9.66,2.62,0.-4,0.2,0.-8,0.-12,4.25,7.58,93327.13,688.71
13364,2,9.69,2.74,0.-8,0.2,0.-9,0.-26,4.12,7.56,93326.4,688.61
13399,2,9.38,3.19,0.-18,0.-7,0.-11,0.-38,4.25,7.56,93322.79,688.61
13433,2,9.23,3.0,0.-2,0.-7,0.-10,0.-9,4.18,7.56,93327.13,689.9
13467,2,9.67,2.73,0.-5,0.-2,0.-10,0.-2,4.18,7.56,93320.61,688.42
13501,2,9.26,2.98,0.-14,0.0,0.-9,0.-8,4.18,7.56,93321.71,688.32
13535,2,9.54,2.94,0.-11,0.0,0.-7,0.21,4.25,7.55,93322.79,689.19
13570,2,9.68,2.71,0.-3,0.1,0.-7,0.18,4.25,7.55,93324.97,688.61
13604,2,9.69,2.61,-1.-20,0.4,0.-8,0.4,4.25,7.55,93324.96,688.71
13638,2,9.29,2.93,0.-14,0.3,0.-7,0.0,4.25,7.55,93320.62,688.61
13673,2,9.51,2.80,0.-14,0.0,0.-6,0.17,4.18,7.56,93327.14,688.90
13707,2,10.3,2.35,0.-17,0.6,0.-11,0.-1,4.12,7.55,93326.4,688.71
13741,2,9.29,2.85,0.-12,0.2,0.-9,0.-17,4.18,7.56,93321.71,687.93
13775,2,9.82,2.36,0.15,0.1,0.-6,0.13,4.12,7.56,93320.61,688.71
13809,2,9.56,2.68,0.-11,0.6,0.-11,0.-22,4.12,7.56,93323.88,688.90
13843,2,9.67,2.65,0.-13,0.4,0.-8,0.-3,4.12,7.56,93328.22,688.61
13877,2,9.29,2.91,0.-9,0.3,0.-7,0.3,4.12,7.55,93324.96,688.42
13911,2,9.80,2.48,0.6,0.4,0.-7,0.12,4.12,7.56,93320.62,689.9
13946,2,9.66,2.55,0.-7,0.4,0.-8,0.4,4.12,7.55,93327.14,688.42
13980,2,9.34,2.71,0.-6,0.3,0.-8,0.-4,4.12,7.55,93323.89,689.9
14014,2,9.71,2.49,0.-3,0.2,0.-7,0.7,4.12,7.55,93321.72,688.32
14048,2,9.52,2.56,0.-1,0.3,0.-8,0.3,4.18,7.54,93322.80,688.13
14082,2,9.83,2.33,0.-1,0.4,0.-9,0.-5,4.6,7.54,93327.15,687.84
14116,2,9.61,2.59,0.-3,0.4,0.-9,0.-11,4.18,7.53,93327.16,688.13
14150,2,9.2,2.72,0.0,0.1,0.-7,0.0,4.12,7.53,93323.89,688.61
14184,2,9.81,2.33,0.-5,0.3,0.-7,0.21,4.12,7.52,93328.24,688.61
14218,2,9.85,2.28,0.1,0.3,0.-9,0.-8,4.12,7.53,93324.99,688.51
14253,2,9.48,2.60,0.-4,0.3,0.-8,0.0,4.12,7.53,93329.33,688.99
14287,2,9.63,2.35,0.-2,0.4,0.-8,0.4,4.12,7.53,93324.99,688.51
14321,2,9.65,2.51,0.-4,0.4,0.-9,0.-6,4.12,7.52,93319.56,688.61
14355,2,9.66,2.46,0.1,0.4,0.-8,0.-2,4.12,7.52,93317.39,688.61
14389,2,9.64,2.53,0.0,0.5,0.-10,0.-5,4.18,7.53,93321.72,688.99
14423,2,9.30,2.66,0.14,0.2,0.-5,0.5,4.12,7.53,93320.64,688.61
14457,2,9.78,2.30,0.-3,0.4,0.-7,0.21,4.18,7.53,93326.7,688.41
14491,2,9.76,2.19,0.3,0.3,0.-7,0.8,4.18,7.53,93328.25,688.32
14526,2,9.68,2.25,0.7,0.4,0.-8,0.-1,4.12,7.52,93323.90,688.70
14560,2,9.70,2.28,0.6,0.6,0.-9,0.-4,4.12,7.52,93317.38,688.42
14595,2,9.69,2.46,0.16,0.11,0.-10,0.-2,4.12,7.53,93323.90,688.99
14629,2,9.80,2.42,0.16,0.29,0.-6,0.2,4.18,7.53,93324.98,688.90
14663,2,9.48,2.24,0.-26,0.38,0.-3,0.-8,4.18,7.53,93322.81,688.70
14697,2,9.60,2.36,0.22,0.0,0.-1,0.13,4.18,7.53,93326.7,688.70
14731,2,9.65,2.22,0.6,0.0,0.-3,0.23,4.18,7.53,93324.99,688.99
14765,2,9.82,1.99,0.12,0.1,0.-4,0.4,4.18,7.53,93329.33,687.83
14803,2,9.65,2.13,0.3,0.0,0.-7,0.-2,4.18,7.53,93320.64,687.93
14837,2,9.78,1.98,0.16,0.1,0.-6,0.6,4.12,7.53,93321.72,688.99
14871,2,9.77,2.1,0.7,0.5,0.-10,0.-2,4.12,7.54,93321.72,689.9
14905,2,9.75,2.6,0.0,0.7,0.-10,0.-5,4.18,7.53,93327.15,687.93
14939,2,9.67,2.12,0.3,0.5,0.-9,0.-5,4.12,7.54,93317.37,688.51
14973,2,9.75,2.3,0.3,0.3,0.-8,0.-8,4.0,7.54,93328.24,688.32
15007,2,9.77,2.1,0.1,0.2,0.-9,0.-14,4.12,7.53,93319.54,688.70
15041,2,9.61,2.25,0.-3,0.0,0.-10,0.-20,4.12,7.53,93323.89,688.51
15076,2,9.73,2.6,0.14,0.-3,0.-8,0.-3,4.12,7.53,93323.90,688.32
15110,2,9.60,2.24,0.-2,0.3,0.-9,0.-3,4.12,7.53,93319.55,688.70
15144,2,9.62,2.20,0.11,0.3,0.-7,0.5,4.12,7.53,93319.55,688.22
15178,2,9.83,1.96,0.10,0.4,0.-7,0.7,4.12,7.53,93326.7,688.61
15212,2,9.70,2.9,0.7,0.4,0.-8,0.2,4.12,7.52,93320.64,688.61
15246,2,9.83,1.94,0.8,0.4,0.-8,0.0,4.18,7.53,93323.90,687.93
15280,2,9.67,2.12,0.1,0.4,0.-10,0.-10,4.18,7.52,93334.77,688.41
15314,2,9.59,2.21,0.0,0.2,0.-8,0.-5,4.6,7.52,93323.90,688.90
15348,2,9.71,2.0,0.6,0.3,0.-8,0.0,4.12,7.52,93323.90,688.61
15383,2,9.67,2.9,0.2,0.4,0.-9,0.-5,4.12,7.53,93327.15,688.12
15417,2,9.71,2.4,0.6,0.5,0.-9,0.-4,4.12,7.52,93320.64,688.51
15451,2,9.73,2.2,0.6,0.4,0.-8,0.-1,4.6,7.53,93321.72,688.90
15485,2,9.71,2.6,0.8,0.6,0.-9,0.-5,4.12,7.52,93323.90,688.22
15519,2,9.71,2.6,0.7,0.5,0.-9,0.-7,4.12,7.53,93327.16,688.32
15553,2,9.66,2.8,0.7,0.4,0.-9,0.-5,4.12,7.52,93320.64,688.80
15587,2,9.71,2.11,0.9,0.3,0.-8,0.-3,4.12,7.53,93330.42,688.70
15622,2,9.74,2.9,0.13,0.3,0.-8,0.-3,4.12,7.52,93320.64,688.61
15657,2,9.68,2.8,0.7,0.4,0.-9,0.-7,4.12,7.53,93326.8,688.90
15691,2,9.70,2.10,0.12,0.3,0.-8,0.-3,4.6,7.52,93321.73,688.51
15725,2,9.75,2.7,0.11,0.4,0.-10,0.-5,4.6,7.52,93319.56,688.41
15759,2,9.71,2.8,0.12,0.3,0.-8,0.-4,4.18,7.52,93326.8,688.80
15793,2,9.71,2.8,0.15,0.4,0.-9,0.-3,4.12,7.52,93318.47,688.51
15827,2,9.71,2.6,0.8,0.3,0.-8,0.-5,4.6,7.52,93330.42,688.22
15861,2,9.69,2.7,0.7,0.3,0.-8,0.-2,4.12,7.51,93325.0,688.61
15895,2,9.66,2.5,0.11,0.4,0.-8,0.-2,4.12,7.51,93318.47,688.51
15930,2,9.71,2.4,0.7,0.4,0.-9,0.-4,4.12,7.51,93323.91,688.32
15964,2,9.69,2.1,0.10,0.7,0.-9,0.-5,4.12,7.51,93319.57,688.3
15998,2,9.70,2.0,0.10,0.4,0.-8,0.-1,4.18,7.51,93327.17,688.61
16032,2,9.76,2.3,0.6,0.8,0.-9,0.-6,4.6,7.51,93329.34,688.61
16066,2,9.69,2.12,0.-4,0.8,0.-10,0.-9,4.12,7.51,93322.83,688.51
16100,2,9.62,2.12,0.5,0.4,0.-9,0.-5,4.12,7.51,93328.25,688.90
16134,2,9.73,2.6,0.5,0.5,0.-8,0.-2,4.18,7.52,93323.91,688.51
16168,2,9.71,2.6,0.7,0.6,0.-9,0.-7,4.18,7.50,93316.31,688.90
16202,2,9.66,2.16,0.8,0.3,0.-9,0.-7,4.12,7.49,93322.83,688.22
16237,2,9.71,2.9,0.10,0.2,0.-7,0.-1,4.12,7.50,93325.0,688.41
16271,2,9.71,2.11,0.4,0.4,0.-9,0.-5,4.12,7.50,93323.92,688.41
16305,2,9.71,2.16,0.3,0.3,0.-8,0.-10,4.18,7.50,93327.17,688.51
16339,2,9.70,2.18,0.7,0.3,0.-9,0.-8,4.12,7.50,93321.75,688.90
16373,2,9.58,2.19,0.7,0.0,0.-8,0.-1,4.12,7.50,93328.26,688.70
16407,2,9.76,2.7,0.12,0.0,0.-9,0.-2,4.12,7.50,93331.52,688.70
16441,2,9.73,2.15,0.6,0.3,0.-9,0.-10,4.12,7.49,93329.35,687.93
16475,2,9.45,2.42,0.2,0.-4,0.-8,0.-4,4.6,7.51,93328.26,688.22
16510,2,9.85,1.80,0.23,0.1,0.-8,0.1,4.12,7.49,93320.66,688.70
16544,2,9.67,2.18,0.5,0.5,0.-9,0.-2,4.12,7.50,93323.92,688.61
16578,2,9.64,2.14,0.4,0.3,0.-7,0.0,4.12,7.50,93326.9,688.22
16612,2,9.76,2.7,0.13,0.4,0.-8,0.0,4.18,7.49,93325.0,688.90
16647,2,9.64,2.20,0.1,0.3,0.-9,0.-5,4.12,7.50,93318.49,688.51
16681,2,9.72,2.14,0.10,0.2,0.-8,0.-4,4.12,7.50,93323.92,688.22
16715,2,9.63,2.28,0.3,0.-2,0.-9,0.-4,4.12,7.50,93323.91,688.41
16749,2,9.71,2.3,0.18,0.-6,0.-8,0.3,4.12,7.50,93318.49,688.22
16784,2,9.82,2.0,0.11,0.4,0.-9,0.-1,4.18,7.50,93329.35,688.51
16818,2,9.62,2.8,0.18,0.4,0.-8,0.-3,4.12,7.49,93321.75,688.32
16852,2,9.59,2.19,0.13,0.2,0.-6,0.10,4.12,7.51,93323.92,688.32
16886,2,9.84,1.94,0.14,0.2,0.-5,0.19,4.12,7.50,93321.75,688.51
16920,2,9.82,1.89,0.17,0.4,0.-8,0.0,4.12,7.51,93322.83,688.41
16954,2,9.74,1.91,0.17,0.3,0.-9,0.-5,4.18,7.50,93322.83,688.80
16988,2,9.59,2.10,0.15,0.3,0.-10,0.-8,4.12,7.49,93325.0,688.70
17022,2,9.84,1.82,0.19,0.4,0.-7,0.1,4.12,7.50,93329.36,688.51
17057,2,9.68,1.96,0.9,0.4,0.-9,0.-4,4.18,7.48,93326.9,688.41
17091,2,9.73,1.99,0.15,0.3,0.-7,0.0,4.12,7.49,93320.67,688.90
17125,2,9.79,1.87,0.16,0.3,0.-7,0.4,4.12,7.49,93323.92,688.51
17159,2,9.75,1.86,0.8,0.4,0.-8,0.0,4.12,7.50,93319.58,688.22
17193,2,9.71,1.94,0.13,0.3,0.-8,0.-2,4.18,7.48,93318.50,688.70
17227,2,9.72,1.90,0.12,0.4,0.-8,0.-2,4.12,7.49,93327.18,688.41
17261,2,9.76,1.87,0.13,0.4,0.-8,0.-3,4.12,7.49,93323.92,687.93
17295,2,9.71,1.90,0.17,0.3,0.-9,0.-6,4.12,7.48,93322.84,688.61
17329,2,9.77,1.86,0.15,0.3,0.-8,0.-3,4.6,7.49,93327.18,688.99
17364,2,9.72,1.86,0.15,0.3,0.-8,0.-4,4.12,7.49,93323.92,688.90
17398,2,9.74,1.88,0.16,0.3,0.-9,0.-4,4.12,7.49,93327.18,688.22
17432,2,9.65,1.93,0.16,0.3,0.-9,0.-8,4.12,7.49,93328.27,688.61
17466,2,9.66,2.0,0.16,0.3,0.-8,0.-4,4.6,7.48,93328.27,688.80
17500,2,9.82,1.84,0.16,0.3,0.-7,0.1,4.12,7.48,93323.93,688.22
17534,2,9.71,1.90,0.15,0.4,0.-9,0.-1,4.18,7.49,93321.75,688.51
17568,2,9.79,1.79,0.18,0.4,0.-7,0.2,4.6,7.49,93325.1,688.41
17602,2,9.76,1.81,0.17,0.4,0.-9,0.-2,4.12,7.49,93328.27,688.70
17637,2,9.73,1.89,0.17,0.3,0.-8,0.-3,4.12,7.48,93327.18,688.31
17672,2,9.66,1.92,0.11,0.3,0.-9,0.-7,4.6,7.48,93323.93,688.70
17706,2,9.71,1.85,0.14,0.3,0.-9,0.-5,4.12,7.47,93322.85,688.80
17740,2,9.70,1.89,0.16,0.4,0.-9,0.-7,4.18,7.47,93328.28,688.80
17774,2,9.72,1.88,0.16,0.4,0.-9,0.-1,4.12,7.48,93328.28,688.60
17808,2,9.77,1.81,0.19,0.4,0.-8,0.0,4.12,7.47,93321.75,688.60
17842,2,9.78,1.85,0.18,0.4,0.-9,0.-4,4.12,7.47,93318.50,688.12
17876,2,9.74,1.83,0.18,0.3,0.-9,0.-5,4.18,7.48,93321.76,688.22
17911,2,9.74,1.88,0.16,0.4,0.-8,0.-1,4.12,7.47,93320.68,688.31
17945,2,9.77,1.79,0.18,0.3,0.-8,0.0,4.12,7.47,93321.76,687.54
17979,2,9.79,1.77,0.15,0.3,0.-8,0.-3,4.12,7.47,93321.76,688.80
18013,2,9.73,1.85,0.16,0.3,0.-8,0.-4,4.12,7.47,93321.76,688.60
18047,2,9.72,1.86,0.15,0.3,0.-8,0.-5,4.18,7.46,93323.93,688.70
18081,2,9.81,1.83,0.19,0.3,0.-9,0.-6,4.6,7.47,93322.85,688.2
18115,2,9.71,1.90,0.15,0.4,0.-10,0.-6,4.12,7.47,93325.3,688.70
18149,2,9.77,1.82,0.19,0.4,0.-9,0.-4,4.12,7.46,93322.85,688.31
18184,2,9.79,1.80,0.19,0.4,0.-8,0.0,4.12,7.46,93325.3,688.60
18218,2,9.80,1.82,0.15,0.6,0.-10,0.-4,4.18,7.46,93323.95,688.31
18252,2,9.70,1.91,0.19,0.3,0.-8,0.-1,4.6,7.46,93320.68,689.9
18286,2,9.75,1.76,0.20,0.3,0.-7,0.0,4.18,7.46,93319.60,688.41
18320,2,9.77,1.75,0.12,0.4,0.-8,0.-1,4.18,7.46,93325.3,689.47
18354,2,9.75,1.80,0.16,0.3,0.-8,0.-2,4.18,7.46,93325.3,688.70
18388,2,9.82,1.77,0.18,0.3,0.-8,0.-2,4.12,7.45,93323.95,689.9
18422,2,9.71,1.78,0.8,0.4,0.-9,0.-4,4.12,7.44,93332.64,688.51
18456,2,9.80,1.73,0.14,0.4,0.-9,0.-3,4.18,7.45,93321.78,688.60
18491,2,9.71,1.89,0.11,0.3,0.-10,0.-9,4.12,7.45,93322.86,688.51
18525,2,9.61,1.92,0.8,0.3,0.-9,0.-7,4.6,7.46,93322.86,688.51
18559,2,9.75,1.81,0.18,0.4,0.-10,0.-6,4.0,7.45,93321.78,688.60
18593,2,9.76,1.76,0.15,0.5,0.-9,0.-2,4.12,7.45,93330.46,688.22
18627,2,9.72,1.93,0.9,0.5,0.-9,0.-3,4.6,7.46,93323.95,688.89
18661,2,9.76,1.81,0.17,0.3,0.-7,0.1,4.12,7.46,93316.35,688.80
18696,2,9.78,1.75,0.19,0.3,0.-8,0.-3,4.6,7.45,93323.95,688.60
18730,2,9.78,1.74,0.18,0.4,0.-9,0.-4,4.12,7.45,93321.78,688.12
18765,2,9.75,1.79,0.19,0.3,0.-9,0.-6,4.18,7.46,93328.29,688.89
18799,2,9.71,1.82,0.18,0.3,0.-9,0.-5,4.12,7.45,93323.95,688.51
18833,2,9.79,1.75,0.12,0.3,0.-8,0.-3,4.12,7.45,93329.38,688.70
18867,2,9.69,1.82,0.12,0.3,0.-9,0.-4,4.12,7.45,93328.29,688.22
18901,2,9.79,1.74,0.18,0.3,0.-7,0.0,4.6,7.46,93322.86,688.22
18935,2,9.75,1.79,0.13,0.3,0.-9,0.-5,4.6,7.46,93325.3,688.41
18969,2,9.73,1.81,0.11,0.4,0.-9,0.-4,4.6,7.46,93328.29,688.12
19003,2,9.75,1.78,0.15,0.4,0.-9,0.-4,4.12,7.45,93328.29,688.31
19038,2,9.76,1.78,0.15,0.4,0.-8,0.-2,4.12,7.46,93319.60,688.41
19072,2,9.78,1.75,0.12,0.4,0.-9,0.-3,4.6,7.45,93325.3,688.99
19106,2,9.75,1.78,0.15,0.4,0.-9,0.-3,4.6,7.45,93326.12,688.70
19140,2,9.74,1.77,0.11,0.4,0.-9,0.-3,4.6,7.46,93322.85,688.80
19174,2,9.76,1.78,0.16,0.3,0.-8,0.-3,4.6,7.45,93323.96,688.60
19208,2,9.79,1.75,0.11,0.3,0.-8,0.-4,4.6,7.45,93325.3,687.83
19242,2,9.78,1.76,0.15,0.3,0.-8,0.-4,4.6,7.45,93326.12,688.41
19276,2,9.82,1.74,0.16,0.3,0.-9,0.-4,4.6,7.46,93327.21,688.60
19311,2,9.75,1.78,0.20,0.3,0.-8,0.-3,4.0,7.44,93323.96,688.51
19345,2,9.75,1.79,0.14,0.4,0.-9,0.-4,4.0,7.44,93316.35,688.51
19379,2,9.76,1.75,0.13,0.4,0.-8,0.-3,4.6,7.45,93323.96,688.31
19413,2,9.75,1.79,0.14,0.4,0.-9,0.-4,4.12,7.44,93327.21,688.12
19447,2,9.77,1.72,0.16,0.3,0.-8,0.-3,4.6,7.44,93328.30,688.41
19481,2,9.75,1.76,0.17,0.3,0.-9,0.-5,4.6,7.44,93327.21,688.80
19515,2,9.78,1.72,0.17,0.4,0.-8,0.-3,4.6,7.44,93327.21,687.83
19549,2,9.78,1.70,0.19,0.5,0.-9,0.-3,4.0,7.45,93331.56,688.60
19584,2,9.74,1.81,0.17,0.5,0.-10,0.-4,3.93,7.44,93326.13,688.89
19618,2,9.81,1.72,0.20,0.3,0.-7,0.0,4.0,7.43,93325.4,688.41
19652,2,9.81,1.72,0.17,0.3,0.-8,0.-4,4.6,7.44,93321.78,688.60
19686,2,9.78,1.73,0.13,0.3,0.-8,0.-2,4.6,7.44,93318.53,688.99
19721,2,9.80,1.70,0.14,0.4,0.-9,0.-4,4.6,7.43,93325.5,688.31
19755,2,9.76,1.75,0.14,0.4,0.-9,0.-4,4.6,7.43,93323.96,688.80
19789,2,9.81,1.75,0.19,0.3,0.-8,0.-4,4.6,7.42,93328.31,688.60
19823,2,9.76,1.75,0.16,0.3,0.-8,0.-4,4.6,7.43,93320.71,689.47
19857,2,9.80,1.74,0.14,0.4,0.-9,0.-4,4.12,7.43,93322.88,688.51
19892,2,9.72,1.80,0.18,0.2,0.-8,0.-5,4.0,7.44,93328.31,688.60
19926,2,9.81,1.71,0.16,0.3,0.-8,0.-3,4.6,7.43,93329.39,688.41
19960,2,9.81,1.73,0.15,0.3,0.-9,0.-5,4.0,7.42,93322.88,688.22
19994,2,9.76,1.73,0.18,0.4,0.-9,0.-4,4.6,7.42,93321.80,688.80
20028,2,9.77,1.71,0.18,0.4,0.-8,0.-3,4.6,7.42,93321.80,688.12
20071,2,9.80,1.69,0.17,0.4,0.-8,0.-2,4.6,7.40,93318.55,688.70
20105,2,9.75,1.67,0.8,0.5,0.-10,0.-6,4.6,7.40,93320.71,688.12
20139,2,9.62,1.81,0.9,0.3,0.-8,0.-4,4.0,7.41,93321.80,688.79
20175,2,9.75,1.76,0.12,0.4,0.-9,0.-5,3.93,7.40,93323.97,688.2
20209,2,9.75,1.70,0.13,0.3,0.-7,0.-2,4.6,7.40,93326.14,688.60
20243,2,9.76,1.73,0.16,0.4,0.-8,0.-2,4.0,7.40,93326.14,688.60
20277,2,9.69,1.76,0.13,0.4,0.-9,0.-4,4.0,7.42,93322.89,688.41
20311,2,9.72,1.82,0.13,0.4,0.-9,0.-5,4.6,7.41,93329.40,688.60
20345,2,9.63,1.89,0.8,0.3,0.-9,0.-4,4.6,7.41,93316.36,688.21
20379,2,9.74,1.70,0.18,0.3,0.-8,0.-2,4.0,7.41,93320.71,688.21
20413,2,9.73,1.76,0.18,0.4,0.-9,0.-6,3.93,7.42,93334.82,688.31
20448,2,9.74,1.76,0.15,0.3,0.-9,0.-7,3.93,7.42,93326.14,687.93
20482,2,9.69,1.80,0.16,0.3,0.-8,0.-4,4.0,7.42,93323.97,688.51
20516,2,9.82,1.72,0.15,0.4,0.-9,0.-3,3.93,7.41,93321.80,688.51
20550,2,9.80,1.76,0.14,0.4,0.-8,0.-3,4.0,7.42,93325.5,689.8
20584,2,9.76,1.70,0.16,0.4,0.-9,0.-5,3.93,7.42,93329.40,688.12
20618,2,9.78,1.73,0.15,0.4,0.-9,0.-5,3.93,7.41,93321.80,688.21
20652,2,9.73,1.76,0.16,0.3,0.-8,0.-4,4.6,7.41,93320.71,688.51
20686,2,9.75,1.70,0.14,0.4,0.-8,0.-2,4.6,7.40,93319.63,688.21
20722,2,9.80,1.72,0.15,0.3,0.-8,0.-3,4.0,7.40,93322.89,688.60
20756,2,9.74,1.73,0.14,0.3,0.-9,0.-5,4.0,7.40,93318.55,687.92
20790,2,9.76,1.73,0.11,0.4,0.-9,0.-4,4.0,7.40,93321.81,688.70
20824,2,9.82,1.71,0.16,0.4,0.-8,0.-3,3.93,7.39,93330.50,687.92
20858,2,9.76,1.70,0.19,0.5,0.-9,0.-4,4.0,7.39,93327.25,688.31
20892,2,9.76,1.77,0.12,0.5,0.-8,0.-3,3.93,7.38,93317.47,688.21
20926,2,9.77,1.73,0.12,0.3,0.-8,0.-1,4.0,7.38,93327.25,687.83
20960,2,9.76,1.73,0.13,0.3,0.-8,0.-3,4.0,7.37,93319.66,688.21
20994,2,9.80,1.71,0.15,0.3,0.-8,0.-3,4.0,7.37,93318.57,688.50
21029,2,9.76,1.70,0.18,0.3,0.-8,0.-2,3.93,7.36,93327.25,688.89
21063,2,9.72,1.72,0.20,0.3,0.-8,0.-2,4.0,7.36,93322.92,688.60
21097,2,9.79,1.71,0.19,0.3,0.-9,0.-4,4.0,7.36,93330.52,688.50
21131,2,9.75,1.71,0.24,0.3,0.-9,0.-5,4.0,7.36,93320.75,688.89
21165,2,9.69,1.83,0.16,0.3,0.-9,0.-5,4.0,7.36,93329.42,688.31
21199,2,9.76,1.67,0.20,0.3,0.-8,0.-1,4.0,7.36,93324.0,688.41
21233,2,9.82,1.72,0.17,0.3,0.-8,0.-5,4.0,7.37,93325.8,688.79
21267,2,9.81,1.70,0.19,0.3,0.-9,0.-6,4.0,7.36,93327.25,688.41
21302,2,9.83,1.67,0.19,0.4,0.-11,0.-16,4.0,7.37,93322.91,688.70
21336,2,9.82,1.61,0.22,0.4,0.-12,0.-30,4.0,7.38,93321.82,688.12
21370,2,9.62,1.99,0.5,0.5,0.-9,0.-9,3.93,7.37,93328.34,688.31
21404,2,9.64,1.98,0.14,0.3,0.-8,0.-4,4.0,7.38,93321.82,688.31
21438,2,9.80,1.77,0.25,0.5,0.-9,0.-1,4.6,7.38,93323.99,688.79
21472,2,9.64,2.9,0.-5,0.10,0.-9,0.-4,4.6,7.38,93318.56,688.41
21506,2,9.77,1.85,0.9,0.3,0.-7,0.2,4.6,7.38,93330.50,688.60
21540,2,9.71,1.86,0.15,0.3,0.-6,0.4,3.93,7.39,93325.7,688.41
21575,2,9.82,1.72,0.17,0.3,0.-8,0.-3,4.0,7.38,93326.16,688.89
21609,2,9.65,1.90,0.9,0.3,0.-9,0.-4,3.87,7.38,93327.25,688.12
21643,2,9.77,1.79,0.14,0.2,0.-7,0.1,4.0,7.38,93326.16,689.8
21677,2,9.76,1.72,0.19,0.0,0.-7,0.0,4.0,7.37,93319.65,688.41
21711,2,9.69,1.87,0.13,0.0,0.-8,0.-2,4.0,7.37,93326.17,688.50
21746,2,9.82,1.63,0.26,0.0,0.-7,0.1,3.93,7.37,93327.25,688.60
21780,2,9.85,1.78,0.13,0.5,0.-9,0.1,4.0,7.36,93321.82,688.50
21814,2,9.71,1.86,0.10,0.3,0.-7,0.1,3.93,7.36,93329.42,688.41
21848,2,9.78,1.71,0.19,0.3,0.-5,0.5,4.0,7.37,93322.91,688.41
21884,2,9.81,1.67,0.24,0.3,0.-8,0.0,3.87,7.37,93321.82,688.31
21918,2,9.73,1.70,0.20,0.4,0.-9,0.-5,4.0,7.36,93322.91,688.31
21952,2,9.72,1.71,0.22,0.3,0.-9,0.-5,4.0,7.37,93321.82,688.2
21986,2,9.78,1.70,0.20,0.4,0.-9,0.-6,4.0,7.36,93324.0,688.31
22020,2,9.77,1.72,0.18,0.3,0.-9,0.-5,4.0,7.36,93327.25,688.41
22054,2,9.73,1.72,0.19,0.4,0.-9,0.-4,4.0,7.37,93328.34,688.79
22088,2,9.77,1.66,0.24,0.5,0.-8,0.-1,4.6,7.37,93330.51,688.31
22122,2,9.78,1.67,0.25,0.5,0.-9,0.-3,4.6,7.36,93325.8,688.89
22157,2,9.71,1.84,0.12,0.4,0.-9,0.-6,4.6,7.38,93322.91,687.92
22191,2,9.71,1.76,0.19,0.3,0.-7,0.0,4.0,7.37,93324.0,688.79
22225,2,9.76,1.71,0.17,0.3,0.-7,0.0,4.0,7.37,93318.57,688.60
22259,2,9.80,1.62,0.20,0.3,0.-7,0.1,4.0,7.38,93328.34,688.79
22293,2,9.78,1.63,0.23,0.4,0.-8,0.-3,4.0,7.37,93319.65,688.21
22327,2,9.77,1.64,0.21,0.4,0.-9,0.-4,4.6,7.37,93323.99,689.8
22361,2,9.77,1.65,0.21,0.4,0.-9,0.-4,4.6,7.38,93319.65,688.50
22395,2,9.78,1.65,0.17,0.3,0.-8,0.-1,3.93,7.37,93324.0,688.2
22430,2,9.69,1.69,0.21,0.3,0.-7,0.0,4.0,7.37,93322.91,688.21
22464,2,9.71,1.64,0.21,0.4,0.-5,0.8,4.0,7.36,93326.17,688.50
22498,2,9.77,1.58,0.23,0.4,0.-4,0.8,4.0,7.38,93318.57,688.60
22532,2,9.91,1.43,0.30,0.4,0.-7,0.0,3.93,7.36,93327.25,688.89
22566,2,9.74,1.52,0.20,0.4,0.-9,0.-4,4.0,7.36,93318.57,689.8
22600,2,9.84,1.48,0.22,0.4,0.-8,0.-2,3.93,7.37,93322.91,688.21
22634,2,9.72,1.49,0.26,0.4,0.-8,0.-4,4.0,7.36,93322.91,687.83
22668,2,9.89,1.58,0.28,0.3,0.-9,0.-5,4.0,7.37,93321.82,689.37
22703,2,9.77,1.56,0.20,0.4,0.-10,0.-7,3.93,7.37,93322.91,688.99
22737,2,9.77,1.58,0.22,0.4,0.-10,0.-8,3.93,7.37,93324.0,687.92
22772,2,9.79,1.53,0.22,0.4,0.-10,0.-7,4.0,7.37,93321.82,688.31
22806,2,9.75,1.56,0.23,0.5,0.-11,0.-10,4.0,7.37,93325.8,688.89
22840,2,9.77,1.61,0.20,0.5,0.-11,0.-13,4.0,7.36,93326.17,688.79
22874,2,9.77,1.63,0.21,0.3,0.-10,0.-13,4.0,7.37,93325.8,688.12
22908,2,9.69,1.70,0.20,0.3,0.-9,0.-9,4.0,7.37,93325.8,688.2
22942,2,9.72,1.61,0.23,0.4,0.-8,0.-3,4.0,7.36,93327.25,688.89
22976,2,9.72,1.64,0.22,0.5,0.-9,0.-2,4.0,7.37,93324.0,688.50
23011,2,9.75,1.67,0.22,0.3,0.-8,0.-1,4.0,7.37,93328.34,688.50
23045,2,9.73,1.66,0.21,0.3,0.-7,0.0,3.93,7.37,93325.8,688.21
23079,2,9.71,1.60,0.25,0.4,0.-8,0.-2,4.0,7.37,93317.49,688.79
23113,2,9.81,1.57,0.20,0.4,0.-9,0.-3,3.93,7.37,93328.34,688.41
23147,2,9.74,1.64,0.23,0.4,0.-9,0.-5,4.0,7.36,93326.17,688.79
23181,2,9.76,1.65,0.26,0.3,0.-9,0.-6,3.93,7.36,93329.42,688.89
23215,2,9.74,1.65,0.21,0.4,0.-9,0.-7,4.0,7.36,93320.74,688.50
23249,2,9.85,1.64,0.22,0.5,0.-9,0.-11,3.93,7.36,93322.91,689.8
23284,2,9.75,1.74,0.19,0.6,0.-10,0.-14,4.0,7.36,93322.91,688.21
23318,2,9.65,1.99,0.26,0.9,0.-8,0.-11,4.0,7.36,93321.83,688.70
23352,2,9.73,1.86,0.12,0.5,0.-7,0.-2,3.93,7.36,93324.0,688.31
23386,2,9.98,1.40,0.34,0.1,0.-5,0.7,3.93,7.37,93322.91,688.41
23420,2,9.77,1.77,0.15,0.5,0.-10,0.-7,4.0,7.36,93328.34,688.31
23454,2,9.68,1.87,0.16,0.3,0.-8,0.-3,3.93,7.37,93319.66,688.2
23488,2,9.81,1.63,0.18,0.2,0.-5,0.7,3.87,7.37,93326.17,688.12
23522,2,9.71,1.67,0.21,0.4,0.-10,0.-6,3.93,7.37,93327.25,688.79
23557,2,9.82,1.72,0.16,0.5,0.-10,0.-5,3.87,7.36,93327.25,688.50
23591,2,9.60,1.76,0.21,0.3,0.-7,0.-1,3.87,7.36,93327.25,688.60
23625,2,9.89,1.50,0.25,0.4,0.-6,0.4,4.0,7.36,93322.91,688.70
23659,2,9.68,1.77,0.11,0.4,0.-10,0.-8,3.93,7.36,93321.83,688.60
23693,2,9.76,1.64,0.18,0.4,0.-8,0.-2,3.93,7.36,93332.68,688.69
23727,2,9.73,1.68,0.21,0.4,0.-8,0.-1,3.87,7.36,93328.34,687.92
23761,2,9.73,1.60,0.22,0.4,0.-8,0.-1,3.87,7.37,93328.34,687.83
23796,2,9.78,1.61,0.21,0.4,0.-8,0.-2,3.93,7.37,93327.25,688.41
23831,2,9.77,1.61,0.17,0.4,0.-9,0.-4,3.93,7.37,93328.34,688.79
23865,2,9.80,1.64,0.15,0.3,0.-8,0.-4,3.87,7.37,93322.91,688.50
23899,2,9.74,1.65,0.18,0.4,0.-9,0.-6,3.87,7.37,93325.8,688.41
23933,2,9.76,1.60,0.15,0.5,0.-8,0.-4,3.87,7.37,93324.0,688.21
23967,2,9.76,1.62,0.17,0.4,0.-8,0.-2,3.93,7.37,93319.64,687.83
24001,2,9.72,1.66,0.19,0.3,0.-7,0.0,3.87,7.37,93325.8,688.2
24035,2,9.71,1.63,0.21,0.3,0.-5,0.5,3.87,7.37,93324.0,688.31
24069,2,9.82,1.55,0.19,0.2,0.-4,0.7,4.0,7.37,93322.92,688.60
24104,2,9.82,1.48,0.24,0.2,0.-4,0.5,3.87,7.36,93325.8,688.41
24138,2,9.76,1.52,0.25,0.3,0.-8,0.-2,3.87,7.35,93324.0,688.21
24172,2,9.76,1.53,0.23,0.4,0.-8,0.-3,3.87,7.36,93327.25,688.12
24206,2,9.77,1.52,0.30,0.3,0.-8,0.-3,3.87,7.36,93321.83,688.79
24240,2,9.76,1.59,0.19,0.3,0.-9,0.-4,3.87,7.35,93328.35,688.69
24274,2,9.77,1.59,0.22,0.3,0.-8,0.-4,3.93,7.35,93324.0,688.50
24308,2,9.79,1.61,0.23,0.4,0.-9,0.-4,3.87,7.35,93331.60,688.50
24342,2,9.78,1.54,0.21,0.4,0.-9,0.-4,3.87,7.35,93328.35,688.12
24376,2,9.75,1.49,0.22,0.3,0.-9,0.-5,3.81,7.36,93326.18,688.31
24411,2,9.77,1.53,0.18,0.4,0.-9,0.-5,3.87,7.34,93331.60,688.21
24445,2,9.82,1.53,0.20,0.4,0.-9,0.-5,3.87,7.34,93332.69,688.69
24479,2,9.76,1.52,0.25,0.3,0.-9,0.-5,3.87,7.34,93328.35,688.31
24513,2,9.77,1.51,0.23,0.3,0.-8,0.-4,3.87,7.34,93327.27,688.12
24547,2,9.76,1.48,0.23,0.3,0.-8,0.-3,3.81,7.34,93325.10,688.21
24581,2,9.80,1.53,0.19,0.4,0.-8,0.-3,3.87,7.35,93327.27,688.31
24615,2,9.77,1.50,0.22,0.4,0.-8,0.-3,3.87,7.35,93324.1,688.79
24649,2,9.81,1.51,0.19,0.4,0.-8,0.-3,3.87,7.35,93325.10,688.21
24684,2,9.84,1.53,0.20,0.3,0.-7,0.-2,3.87,7.34,93328.35,688.21
24718,2,9.78,1.55,0.22,0.4,0.-9,0.-5,3.87,7.34,93320.75,687.92
24752,2,9.82,1.57,0.20,0.4,0.-10,0.-6,3.81,7.33,93326.18,688.31
24786,2,9.80,1.56,0.19,0.4,0.-9,0.-5,3.93,7.34,93337.4,688.31
24821,2,9.76,1.55,0.22,0.4,0.-9,0.-7,3.81,7.33,93326.18,688.79
24855,2,9.84,1.55,0.19,0.4,0.-10,0.-8,3.87,7.33,93325.10,688.31
24889,2,9.76,1.56,0.21,0.3,0.-10,0.-10,3.81,7.34,93329.44,688.60
24923,2,9.81,1.61,0.19,0.4,0.-11,0.-11,3.87,7.34,93327.27,688.50
24958,2,9.79,1.67,0.26,0.5,0.-11,0.-14,3.81,7.34,93321.84,688.11
24992,2,9.77,1.61,0.13,0.23,0.-11,0.-21,3.87,7.34,93331.61,688.2
25026,2,9.81,1.86,0.29,0.15,0.-9,0.-21,3.87,7.35,93326.18,688.40
25060,2,9.86,1.92,0.39,0.59,0.-7,0.-53,3.81,7.33,93326.18,688.69
25094,2,9.23,2.9,0.-6,0.56,0.15,0.-49,3.81,7.34,93322.92,688.60
25128,2,9.70,1.33,0.30,0.1,0.0,0.12,3.81,7.33,93320.75,688.98
25162,2,9.30,2.18,0.-6,0.1,0.-6,0.18,3.87,7.33,93320.75,688.12
25196,2,10.37,1.39,0.44,0.1,0.0,0.34,3.87,7.35,93330.53,688.21
25231,2,9.59,1.92,0.15,0.3,0.-7,0.2,3.81,7.34,93325.10,688.79
25265,2,9.68,1.72,0.27,0.-1,0.-3,0.18,3.81,7.34,93322.92,688.31
25299,2,9.78,1.67,0.24,0.-1,0.-5,0.10,3.81,7.33,93321.84,688.79
25333,2,9.85,1.65,0.33,0.-2,0.-6,0.6,3.81,7.34,93320.75,687.92
25367,2,9.69,1.57,0.26,0.3,0.-8,0.-3,3.87,7.33,93325.10,688.50
25401,2,9.74,1.63,0.22,0.3,0.-7,0.-1,3.81,7.33,93325.10,688.31
25435,2,9.77,1.62,0.20,0.1,0.-8,0.0,3.81,7.33,93333.78,688.69
25469,2,9.74,1.57,0.21,0.0,0.-7,0.1,3.87,7.33,93329.44,688.31
25504,2,9.75,1.56,0.27,0.1,0.-7,0.0,3.81,7.33,93329.44,687.92
25538,2,9.74,1.55,0.23,0.3,0.-8,0.-3,3.81,7.33,93330.53,688.40
25572,2,9.74,1.59,0.22,0.3,0.-9,0.-3,3.81,7.33,93324.1,688.2
25606,2,9.75,1.58,0.25,0.4,0.-8,0.-3,3.68,7.33,93329.45,688.50
25640,2,9.73,1.57,0.27,0.4,0.-9,0.-3,3.81,7.34,93327.27,688.11
25674,2,9.75,1.59,0.25,0.4,0.-8,0.-3,3.81,7.33,93325.10,688.60
25708,2,9.75,1.59,0.29,0.3,0.-8,0.-3,3.81,7.33,93322.93,688.31
25742,2,9.79,1.55,0.32,0.3,0.-8,0.-3,3.81,7.33,93329.45,688.69
25777,2,9.71,1.57,0.28,0.4,0.-8,0.-4,3.75,7.33,93324.1,688.79
25811,2,9.80,1.54,0.33,0.3,0.-8,0.-3,3.75,7.32,93325.10,688.89
25846,2,9.72,1.56,0.25,0.3,0.-8,0.-3,3.75,7.33,93320.76,688.89
25880,2,9.78,1.53,0.33,0.3,0.-9,0.-4,3.75,7.32,93315.33,688.21
25914,2,9.75,1.53,0.31,0.4,0.-9,0.-4,3.81,7.32,93322.93,688.60
25948,2,9.74,1.57,0.27,0.3,0.-8,0.-4,3.81,7.33,93324.1,688.11
25982,2,9.77,1.56,0.28,0.3,0.-8,0.-3,3.75,7.32,93326.19,689.18
26016,2,9.79,1.55,0.31,0.3,0.-8,0.-4,3.81,7.32,93325.10,687.53
26051,2,9.72,1.56,0.29,0.4,0.-9,0.-4,3.75,7.32,93330.53,688.2
26085,2,9.77,1.58,0.26,0.3,0.-8,0.-3,3.81,7.32,93321.84,688.21
26119,2,9.73,1.56,0.25,0.3,0.-8,0.-3,3.81,7.33,93328.36,688.2
26153,2,9.78,1.52,0.31,0.4,0.-8,0.-3,3.75,7.33,93326.19,687.92
26187,2,9.78,1.53,0.31,0.4,0.-9,0.-4,3.81,7.32,93326.19,688.79
26221,2,9.78,1.54,0.33,0.4,0.-9,0.-4,3.75,7.33,93324.2,687.82
26255,2,9.75,1.55,0.28,0.4,0.-9,0.-4,3.75,7.32,93328.36,688.89
26289,2,9.78,1.52,0.33,0.3,0.-8,0.-4,3.75,7.32,93324.2,688.2
26323,2,9.74,1.58,0.27,0.3,0.-8,0.-3,3.75,7.32,93330.53,688.40
26358,2,9.74,1.58,0.28,0.4,0.-9,0.-4,3.81,7.32,93329.45,688.98
26392,2,9.78,1.50,0.32,0.3,0.-8,0.-3,3.81,7.32,93328.36,688.11
26426,2,9.80,1.53,0.31,0.3,0.-8,0.-3,3.81,7.31,93328.36,688.69
26460,2,9.80,1.51,0.34,0.3,0.-8,0.-3,3.75,7.32,93330.53,689.18
26494,2,9.78,1.58,0.28,0.4,0.-9,0.-4,3.75,7.32,93321.85,687.92
26528,2,9.74,1.55,0.28,0.4,0.-9,0.-4,3.75,7.32,93317.51,688.89
26562,2,9.75,1.54,0.32,0.4,0.-9,0.-4,3.68,7.31,93329.45,688.2
26596,2,9.80,1.54,0.32,0.3,0.-8,0.-4,3.75,7.31,93324.3,688.69
26631,2,9.76,1.56,0.26,0.3,0.-8,0.-3,3.68,7.31,93324.3,688.40
26665,2,9.73,1.57,0.28,0.4,0.-9,0.-4,3.68,7.31,93331.63,688.40
26699,2,9.76,1.52,0.31,0.3,0.-8,0.-4,3.75,7.31,93320.77,687.73
26733,2,9.77,1.50,0.33,0.3,0.-8,0.-3,3.75,7.31,93324.3,688.31
26767,2,9.78,1.53,0.36,0.3,0.-8,0.-3,3.81,7.31,93322.94,688.50
26801,2,9.80,1.55,0.33,0.3,0.-8,0.-3,3.75,7.31,93321.85,688.11
26835,2,9.77,1.55,0.32,0.4,0.-9,0.-4,3.75,7.30,93327.28,688.40
26870,2,9.76,1.56,0.31,0.4,0.-9,0.-4,3.75,7.30,93321.86,688.21
26905,2,9.74,1.56,0.32,0.3,0.-8,0.-3,3.81,7.29,93326.21,688.79
26939,2,9.79,1.54,0.34,0.4,0.-9,0.-4,3.75,7.30,93325.12,688.50
26973,2,9.78,1.51,0.37,0.3,0.-8,0.-3,3.75,7.29,93321.86,687.53
27007,2,9.71,1.55,0.27,0.3,0.-8,0.-3,3.75,7.29,93321.86,688.31
27041,2,9.78,1.58,0.27,0.3,0.-8,0.-3,3.75,7.29,93320.78,687.63
27075,2,9.77,1.52,0.33,0.4,0.-9,0.-4,3.81,7.28,93326.21,688.21
27109,2,9.76,1.55,0.30,0.4,0.-9,0.-4,3.81,7.28,93322.96,688.11
27143,2,9.74,1.55,0.27,0.4,0.-9,0.-4,3.75,7.28,93321.87,688.21
27178,2,9.75,1.53,0.33,0.3,0.-8,0.-3,3.81,7.27,93324.3,688.60
27212,2,9.78,1.51,0.35,0.3,0.-9,0.-5,3.75,7.27,93326.21,688.31
27246,2,9.76,1.50,0.33,0.4,0.-9,0.-4,3.75,7.28,93319.69,688.21
27280,2,9.78,1.52,0.40,0.3,0.-8,0.-4,3.75,7.27,93320.78,688.60
27314,2,9.78,1.53,0.33,0.3,0.-8,0.-3,3.75,7.27,93322.96,688.21
27348,2,9.76,1.55,0.29,0.3,0.-8,0.-4,3.75,7.28,93324.4,688.2
27382,2,9.77,1.51,0.22,0.3,0.-8,0.-3,3.75,7.27,93322.96,688.31
27416,2,9.78,1.56,0.23,0.4,0.-9,0.-3,3.75,7.27,93320.78,688.40
27451,2,9.75,1.54,0.30,0.4,0.-9,0.-4,3.68,7.28,93325.13,687.92
27485,2,9.81,1.55,0.33,0.3,0.-8,0.-3,3.75,7.28,93326.21,688.40
27519,2,9.79,1.51,0.32,0.3,0.-8,0.-4,3.68,7.28,93326.21,688.69
27553,2,9.71,1.55,0.28,0.3,0.-9,0.-5,3.68,7.27,93328.39,687.44
27587,2,9.70,1.56,0.29,0.3,0.-9,0.-4,3.75,7.27,93324.4,688.50
27621,2,9.71,1.56,0.31,0.3,0.-8,0.-3,3.62,7.27,93319.70,688.50
27655,2,9.77,1.55,0.33,0.3,0.-8,0.-3,3.68,7.27,93327.30,688.79
27689,2,9.74,1.49,0.36,0.3,0.-8,0.-2,3.68,7.27,93327.30,688.50
27724,2,9.76,1.61,0.27,0.4,0.-9,0.-3,3.75,7.26,93326.21,688.98
27758,2,9.75,1.52,0.33,0.3,0.-8,0.-2,3.68,7.27,93327.30,688.59
27792,2,9.76,1.53,0.32,0.3,0.-8,0.-2,3.68,7.27,93327.31,688.59
27826,2,9.81,1.46,0.31,0.4,0.-9,0.-4,3.68,7.27,93324.4,688.31
27860,2,9.79,1.53,0.32,0.4,0.-9,0.-4,3.68,7.26,93327.31,688.50
27895,2,9.71,1.53,0.28,0.4,0.-9,0.-5,3.62,7.26,93327.31,688.69
27929,2,9.73,1.56,0.25,0.3,0.-8,0.-3,3.75,7.26,93319.70,688.50
27963,2,9.77,1.55,0.24,0.3,0.-8,0.-3,3.68,7.26,93325.14,688.40
27998,2,9.69,1.51,0.32,0.3,0.-8,0.-4,3.68,7.26,93324.5,688.31
28032,2,9.74,1.62,0.24,0.3,0.-8,0.-3,3.75,7.26,93330.56,688.31
28066,2,9.74,1.48,0.22,0.3,0.-8,0.-2,3.68,7.26,93322.96,687.92
28100,2,9.75,1.48,0.24,0.4,0.-8,0.-3,3.62,7.26,93321.87,688.21
28134,2,9.73,1.51,0.27,0.3,0.-9,0.-4,3.62,7.26,93321.87,688.40
28168,2,9.77,1.54,0.28,0.4,0.-9,0.-4,3.68,7.26,93331.64,688.31
28202,2,9.73,1.47,0.29,0.3,0.-8,0.-4,3.68,7.27,93325.13,688.40
28236,2,9.77,1.55,0.28,0.3,0.-8,0.-5,3.68,7.27,93328.39,688.50
28270,2,9.78,1.51,0.27,0.3,0.-8,0.-4,3.68,7.27,93322.96,688.31
28305,2,9.76,1.53,0.29,0.3,0.-9,0.-5,3.68,7.26,93329.47,688.11
28339,2,9.75,1.53,0.31,0.3,0.-8,0.-3,3.62,7.27,93330.56,688.2
28373,2,9.77,1.52,0.33,0.3,0.-8,0.-4,3.62,7.27,93329.47,688.60
28407,2,10.75,0.92,0.2,0.20,0.-5,0.14,3.68,7.27,93322.96,688.40
28441,2,9.93,1.47,0.44,0.19,0.-11,0.-14,3.68,7.28,93322.96,688.69
28475,2,9.60,0.98,0.-31,0.23,0.-17,0.-33,3.68,7.27,93329.47,688.98
28509,2,5.11,3.78,0.-57,0.-68,0.-17,0.21,3.62,7.27,93325.14,688.40
28543,2,8.82,2.57,2.4,0.-3,0.-27,0.-46,3.62,7.26,93326.22,688.59
28578,2,9.93,1.22,0.45,0.1,0.-7,0.-4,3.62,7.26,93321.88,688.50
28612,2,9.74,1.45,0.23,0.4,0.-10,0.-6,3.62,7.25,93322.97,688.59
28646,2,9.84,1.57,0.34,0.3,0.-9,0.-5,3.56,7.24,93320.80,688.40
28680,2,9.99,1.42,0.13,0.3,0.-8,0.-3,3.62,7.23,93325.14,688.69
28714,2,9.68,1.34,0.56,0.3,0.-7,0.-2,3.68,7.23,93321.89,688.21
28748,2,9.79,1.43,0.33,0.4,0.-8,0.-2,3.56,7.21,93321.89,687.63
28782,2,9.76,1.43,0.42,0.3,0.-9,0.-5,3.68,7.21,93322.98,688.59
28816,2,9.71,1.44,0.40,0.4,0.-9,0.-5,3.62,7.20,93328.41,688.59
28851,2,9.77,1.41,0.35,0.3,0.-8,0.-2,3.68,7.21,93327.32,688.30
28885,2,9.79,1.38,0.40,0.4,0.-8,0.-2,3.62,7.20,93328.41,688.40
28920,2,9.77,1.40,0.38,0.4,0.-8,0.-3,3.62,7.20,93321.90,688.21
28954,2,9.78,1.43,0.38,0.3,0.-8,0.-4,3.62,7.20,93321.90,688.21
28988,2,9.82,1.34,0.41,0.3,0.-8,0.-2,3.62,7.20,93326.25,688.69
29022,2,9.83,1.37,0.37,0.3,0.-8,0.-3,3.62,7.20,93330.58,688.1
29056,2,9.69,1.51,0.30,0.3,0.-7,0.-5,3.62,7.20,93322.99,688.40
29090,2,9.86,1.32,0.45,0.2,0.-10,0.-10,3.68,7.19,93325.16,688.30
29125,2,9.82,1.26,0.33,0.4,0.-12,0.-12,3.68,7.19,93325.16,688.11
29159,2,9.79,1.55,0.21,0.4,0.-17,0.-30,3.62,7.19,93324.7,687.92
29193,2,9.41,1.98,0.26,0.3,0.-3,0.12,3.62,7.19,93324.7,688.11
29227,2,10.1,1.14,0.42,0.-2,0.-2,0.11,3.62,7.20,93332.75,688.21
29261,2,9.85,1.2,0.69,0.-2,0.-11,0.-8,3.62,7.19,93326.25,688.69
29295,2,9.65,1.60,0.22,0.3,0.-12,0.-15,3.62,7.20,93329.50,688.88
29329,2,9.72,1.45,0.36,0.3,0.-4,0.7,3.62,7.20,93327.33,688.30
29363,2,9.97,1.29,0.34,0.4,0.-10,0.-8,3.62,7.19,93327.33,688.11
29398,2,9.77,1.45,0.44,0.3,0.-7,0.0,3.68,7.19,93329.50,688.21
29432,2,9.58,1.64,0.25,0.4,0.-11,0.-10,3.62,7.19,93319.73,689.7
29466,2,9.97,1.43,0.49,0.3,0.-10,0.-8,3.68,7.19,93327.33,687.72
29500,2,9.86,0.71,0.42,0.4,0.0,0.22,3.68,7.19,93318.64,688.21
29534,2,9.51,2.5,0.31,0.8,0.-5,0.4,3.68,7.19,93326.25,688.40
29568,2,9.78,1.31,0.41,0.10,0.-10,0.-7,3.62,7.19,93324.7,688.69
29602,2,9.77,1.48,0.28,0.15,0.-11,0.-17,3.62,7.20,93328.41,688.79
29636,2,9.81,1.59,0.49,0.13,0.-9,0.-16,3.62,7.19,93321.90,688.59
29671,2,10.8,1.14,0.62,0.-13,0.-4,0.27,3.62,7.20,93321.90,688.21
29705,2,9.21,2.36,1.8,0.11,0.-25,0.-27,3.62,7.19,93326.25,688.88
29739,2,10.60,0.94,0.-16,0.-8,0.-16,0.-58,3.62,7.19,93321.90,688.21
29773,2,7.37,3.42,0.55,0.-20,0.0,0.20,3.56,7.19,93322.99,688.88
29807,2,12.71,-4.0,3.24,0.1,0.49,1.28,3.62,7.19,93317.56,688.40
29841,2,9.30,1.80,0.0,0.4,0.-16,0.-25,3.62,7.19,93328.42,688.11
29875,2,9.32,1.79,0.63,0.0,0.-4,0.11,3.62,7.19,93330.59,688.50
29909,2,9.81,1.37,0.27,0.4,0.-14,0.-15,3.68,7.19,93326.25,688.50
29945,2,9.82,1.48,0.35,0.4,0.-6,0.1,3.56,7.19,93326.25,687.63
29979,2,14.51,-1.-41,0.9,0.0,0.-26,0.-99,3.56,7.19,93322.99,688.30
30013,2,6.62,4.2,2.78,0.19,0.-20,-4.-10,3.56,7.19,93322.99,688.59
30047,2,7.30,5.67,1.38,0.50,0.-73,-3.-33,3.56,7.18,93322.99,688.21
30112,2,7.89,9.28,0.63,0.3,-2.-67,-6.-21,3.56,7.19,93326.25,688.50
30146,2,8.90,13.20,0.-35,1.4,-1.-35,-6.-54,3.50,7.17,93324.8,688.50
30180,2,10.90,6.18,2.40,0.-7,0.34,0.-27,3.50,7.17,93324.8,688.21
30214,2,9.85,7.24,0.92,-2.-21,-1.-94,1.83,3.56,7.17,93325.17,689.17
30250,2,9.74,6.76,0.-82,-2.-44,-1.-10,2.45,3.56,7.18,93324.8,688.11
30284,2,8.78,5.73,0.-88,-2.-56,-2.-6,3.79,3.56,7.17,93320.82,688.40
30318,2,5.83,4.61,-4.-53,-2.-4,-4.-25,3.78,3.56,7.17,93327.34,688.21
30352,2,6.2,6.34,-5.-17,-1.-76,0.-89,2.16,3.56,7.17,93317.57,688.88
30386,2,-6.-98,0.33,-6.-87,0.21,-2.-69,3.13,3.50,7.17,93320.82,688.40
30420,2,3.24,10.9,-6.-74,6.66,-8.-34,0.-70,3.56,7.18,93323.0,688.30
30454,2,7.24,3.56,0.5,2.11,-4.-5,5.69,3.56,7.17,93320.82,688.59
30489,2,-6.-72,-51.-11,-5.-25,-2.-9,4.19,5.11,3.56,7.17,93321.91,688.88
30523,2,0.31,-8.-58,1.71,2.8,0.-45,4.4,3.56,7.16,93323.0,688.50
30557,2,8.40,0.92,-3.-48,2.93,-1.-77,0.-22,3.56,7.16,93324.8,688.88
30591,2,6.51,9.66,-8.-62,1.13,0.51,-1.-44,3.50,7.16,93320.82,688.69
30625,2,2.85,9.91,-13.-14,-2.-45,0.3,-2.-41,3.56,7.16,93319.74,688.1
30659,2,9.3,3.55,-9.-91,-3.-24,1.71,0.11,3.56,7.16,93319.74,688.30
30693,2,18.8,-4.-32,-2.-24,-4.-4,2.63,1.35,3.56,7.16,93321.91,688.21
30727,2,15.62,9.26,4.81,0.27,7.90,-2.-65,3.56,7.17,93326.25,688.98
30763,2,10.63,-3.-86,0.78,1.4,2.83,-2.-47,3.50,7.17,93318.65,688.21
30797,2,9.32,0.-55,0.11,-1.-28,0.65,0.-13,3.56,7.16,93324.8,688.11
30831,2,1.99,1.87,-6.-5,0.-17,4.61,0.-51,3.50,7.16,93325.17,688.59
30865,2,36.47,15.25,14.34,0.29,7.83,1.65,3.50,7.16,93328.42,688.49
30899,2,2.62,3.18,1.99,-1.-70,0.63,0.-16,3.50,7.16,93330.60,688.59
30933,2,4.38,1.65,10.14,-3.-81,-2.-85,2.0,3.50,7.16,93320.82,688.98
30968,2,14.55,-14.-27,-3.-59,-2.-16,-9.-57,-1.-13,3.56,7.15,93325.17,688.59
31003,2,9.56,1.55,-2.-95,0.28,-1.-33,0.-51,3.43,7.16,93325.17,688.88
31037,2,9.78,0.39,0.80,0.4,0.-14,0.-1,3.50,7.15,93319.75,687.82
31071,2,9.56,0.44,0.75,0.4,0.-14,0.-2,3.56,7.15,93328.42,688.11
31105,2,9.78,0.56,0.83,0.3,0.-10,0.-3,3.43,7.15,93330.60,688.79
31139,2,9.82,0.55,0.93,0.3,0.-8,0.-2,3.56,7.16,93324.9,688.49
31173,2,9.84,0.53,0.90,0.3,0.-9,0.-3,3.50,7.15,93324.9,687.72
31207,2,9.88,0.59,0.99,0.3,0.-8,0.-3,3.50,7.16,93321.91,688.59
31241,2,9.87,0.55,0.90,0.3,0.-10,0.-3,3.50,7.16,93321.92,688.40
31276,2,9.76,0.60,1.8,0.3,0.-9,0.-2,3.50,7.15,93321.92,688.1
31310,2,10.3,0.44,0.98,0.3,0.-8,0.-4,3.43,7.15,93326.25,688.49
31344,2,9.86,0.49,0.98,0.3,0.-8,0.-4,3.50,7.16,93326.25,688.40
31378,2,9.83,0.56,0.96,0.3,0.-10,0.-4,3.50,7.16,93325.17,687.82
31412,2,9.79,0.53,0.95,0.3,0.-10,0.-4,3.50,7.15,93323.0,688.40
31446,2,9.84,0.54,0.74,0.3,0.-10,0.-3,3.50,7.15,93324.9,688.20
31480,2,9.81,0.30,0.91,0.3,0.-8,0.-2,3.50,7.15,93328.43,688.49
31514,2,9.78,0.59,0.75,0.4,0.-9,0.-2,3.50,7.14,93320.83,688.40
31549,2,9.79,0.55,0.93,0.4,0.-9,0.-3,3.50,7.15,93326.25,688.98
31583,2,9.80,0.42,0.80,0.3,0.-9,0.-3,3.56,7.15,93331.68,688.20
31617,2,9.86,0.52,0.92,0.3,0.-8,0.-3,3.56,7.14,93321.92,688.59
31651,2,9.84,0.50,0.95,0.3,0.-8,0.-4,3.56,7.15,93321.92,688.49
31685,2,9.82,0.52,0.96,0.4,0.-9,0.-4,3.43,7.15,93326.26,688.40
31719,2,9.84,0.51,0.93,0.4,0.-9,0.-4,3.56,7.14,93320.83,688.40
31753,2,9.82,0.51,0.87,0.4,0.-9,0.-4,3.50,7.14,93324.9,687.72
31787,2,9.78,0.50,0.84,0.3,0.-9,0.-4,3.50,7.15,93324.9,688.11
31822,2,9.79,0.50,0.83,0.3,0.-8,0.-4,3.50,7.16,93320.83,688.69
31856,2,9.80,0.50,0.89,0.4,0.-9,0.-4,3.50,7.15,93320.83,688.30
31890,2,9.79,0.50,0.88,0.3,0.-8,0.-4,3.50,7.15,93321.92,688.40
31924,2,9.80,0.49,0.90,0.3,0.-9,0.-3,3.43,7.16,93328.42,687.91
31958,2,9.76,0.51,0.85,0.3,0.-8,0.-3,3.50,7.15,93326.26,688.49
31993,2,9.82,0.47,0.89,0.3,0.-9,0.-3,3.50,7.15,93324.9,688.78
32027,2,9.77,0.49,0.88,0.4,0.-10,0.-3,3.50,7.16,93327.35,688.40
32061,2,9.74,0.48,0.89,0.3,0.-10,0.-3,3.50,7.15,93323.0,688.11
32096,2,9.78,0.51,0.85,0.3,0.-10,0.-3,3.50,7.15,93325.17,688.59
32130,2,9.77,0.49,0.88,0.3,0.-9,0.-3,3.50,7.15,93327.35,688.20
32164,2,9.78,0.52,0.85,0.3,0.-9,0.-3,3.43,7.16,93324.9,688.40
32198,2,9.80,0.50,0.83,0.3,0.-8,0.-3,3.50,7.16,93329.52,688.40
32232,2,9.79,0.49,0.89,0.3,0.-8,0.-3,3.50,7.14,93320.83,688.40
32266,2,9.76,0.56,0.89,0.3,0.-8,0.-4,3.43,7.15,93324.9,688.49
32300,2,9.79,0.53,0.85,0.4,0.-9,0.-4,3.37,7.15,93330.60,688.78
32334,2,9.79,0.52,0.83,0.4,0.-9,0.-4,3.43,7.15,93324.9,687.82
32368,2,9.79,0.48,0.81,0.4,0.-8,0.-4,3.43,7.14,93327.35,688.59
32403,2,9.80,0.55,0.87,0.3,0.-8,0.-4,3.43,7.15,93328.43,688.49
32437,2,9.77,0.48,0.89,0.4,0.-9,0.-4,3.43,7.14,93321.92,688.49
32471,2,9.78,0.53,0.85,0.4,0.-8,0.-4,3.43,7.14,93323.0,688.69
32505,2,9.82,0.48,0.94,0.3,0.-8,0.-4,3.43,7.14,93329.52,688.1
32539,2,9.82,0.51,0.81,0.3,0.-8,0.-4,3.43,7.14,93327.35,688.1
32573,2,9.79,0.55,0.87,0.3,0.-8,0.-3,3.50,7.14,93327.35,688.49
32607,2,9.83,0.48,0.77,0.3,0.-8,0.-3,3.43,7.15,93320.83,688.49
32641,2,9.79,0.51,0.81,0.4,0.-8,0.-4,3.31,7.14,93320.83,688.88
32676,2,9.80,0.53,0.79,0.4,0.-9,0.-4,3.37,7.15,93327.35,688.40
32710,2,9.81,0.52,0.80,0.3,0.-8,0.-3,3.37,7.14,93324.9,688.49
32744,2,9.77,0.54,0.76,0.3,0.-9,0.-3,3.37,7.15,93315.40,688.49
32778,2,9.81,0.52,0.81,0.4,0.-8,0.-4,3.37,7.14,93325.17,688.88
32812,2,9.88,0.46,0.82,0.4,0.-8,0.-4,3.37,7.15,93325.17,687.91
32846,2,9.82,0.47,0.79,0.4,0.-9,0.-4,3.37,7.14,93330.60,687.82
32880,2,9.76,0.48,0.78,0.3,0.-8,0.-4,3.37,7.15,93323.0,688.69
32914,2,9.83,0.50,0.79,0.3,0.-8,0.-3,3.31,7.14,93326.26,688.20
32949,2,9.83,0.48,0.80,0.4,0.-9,0.-3,3.31,7.15,93327.35,688.11
32983,2,9.84,0.53,0.79,0.3,0.-8,0.-3,3.25,7.15,93324.9,688.30
33018,2,9.83,0.47,0.80,0.3,0.-8,0.-3,3.31,7.15,93331.68,688.59
33052,2,9.79,0.52,0.85,0.4,0.-8,0.-4,3.31,7.15,93327.35,687.91
33086,2,9.77,0.51,0.75,0.4,0.-9,0.-4,3.31,7.15,93327.34,688.40
33120,2,9.75,0.49,0.80,0.3,0.-8,0.-4,3.25,7.14,93325.17,688.78
33154,2,9.82,0.53,0.79,0.3,0.-8,0.-3,3.25,7.15,93324.9,688.69
33188,2,9.75,0.52,0.81,0.3,0.-8,0.-3,3.31,7.15,93324.9,688.20
33223,2,9.77,0.55,0.89,0.4,0.-9,0.-4,3.25,7.15,93327.35,688.40
33257,2,9.79,0.49,0.90,0.3,0.-8,0.-3,3.31,7.14,93326.26,688.69
33291,2,9.77,0.49,0.80,0.3,0.-9,0.-3,3.37,7.15,93326.26,688.49
33325,2,9.78,0.53,0.86,0.4,0.-8,0.-3,3.31,7.14,93330.60,689.7
33359,2,9.79,0.52,0.84,0.4,0.-9,0.-3,3.25,7.14,93328.43,688.69
33393,2,9.81,0.51,0.83,0.4,0.-9,0.-3,3.25,7.14,93320.83,688.11
33427,2,9.78,0.50,0.81,0.4,0.-9,0.-4,3.25,7.13,93324.9,688.59
33461,2,9.79,0.52,0.83,0.3,0.-9,0.-4,3.31,7.14,93317.58,687.82
33496,2,9.90,0.47,0.74,0.3,0.-8,0.-4,3.25,7.14,93328.43,688.69
33530,2,9.80,0.51,0.97,0.4,0.-9,0.-4,3.25,7.14,93326.26,688.59
33564,2,9.79,0.54,0.87,0.3,0.-8,0.-3,3.18,7.14,93321.92,688.49
33598,2,9.88,0.51,0.92,0.3,0.-8,0.-3,3.25,7.13,93330.60,688.59
33632,2,9.78,0.48,0.89,0.3,0.-8,0.-4,3.25,7.14,93321.92,688.30
33666,2,9.79,0.51,0.88,0.3,0.-8,0.-4,3.18,7.13,93326.26,688.1
33700,2,9.79,0.50,0.93,0.4,0.-9,0.-4,3.31,7.14,93323.0,688.30
33734,2,9.79,0.51,0.84,0.4,0.-9,0.-4,3.31,7.13,93320.84,688.30
33769,2,9.86,0.51,0.92,0.4,0.-9,0.-4,3.31,7.13,93324.9,688.40
33803,2,9.82,0.47,0.92,0.4,0.-9,0.-4,3.31,7.14,93332.78,688.30
33837,2,9.81,0.51,0.83,0.4,0.-9,0.-4,3.25,7.13,93325.17,688.11
33871,2,9.81,0.45,0.91,0.4,0.-9,0.-4,3.31,7.14,93330.60,687.91
33905,2,9.80,0.52,0.82,0.3,0.-9,0.-3,3.25,7.13,93318.67,688.49
33939,2,9.83,0.47,0.85,0.3,0.-8,0.-3,3.37,7.13,93324.9,688.98
33973,2,9.85,0.52,0.94,0.3,0.-8,0.-3,3.37,7.13,93327.35,688.1
34007,2,9.85,0.60,1.0,0.3,0.-7,0.-3,3.25,7.12,93317.58,688.49
34042,2,9.80,0.52,0.93,0.4,0.-8,0.-4,3.25,7.14,93324.10,688.1
34077,2,9.85,0.50,0.96,0.3,0.-8,0.-3,3.25,7.13,93321.92,688.11
34111,2,9.82,0.50,0.97,0.4,0.-9,0.-4,3.31,7.13,93324.10,688.59
34145,2,9.75,0.53,0.88,0.4,0.-9,0.-4,3.31,7.12,93328.43,689.7
34179,2,9.80,0.48,0.97,0.3,0.-8,0.-4,3.31,7.12,93325.18,688.11
34213,2,9.82,0.51,0.96,0.3,0.-8,0.-3,3.37,7.12,93324.10,688.40
34247,2,9.81,0.48,0.92,0.3,0.-8,0.-3,3.31,7.12,93324.10,688.59
34281,2,9.79,0.49,0.87,0.3,0.-8,0.-3,3.31,7.12,93327.35,688.20
34315,2,9.81,0.50,1.0,0.4,0.-9,0.-4,3.31,7.12,93323.1,688.30
34350,2,9.94,0.14,0.64,0.3,0.-9,0.-2,3.31,7.12,93328.44,688.30
34384,2,9.87,0.46,0.78,0.3,0.-8,0.-3,3.31,7.12,93324.10,688.30
34418,2,9.87,0.44,0.87,0.4,0.-8,0.-4,3.31,7.12,93319.75,688.59
34452,2,9.34,0.29,1.5,0.3,0.-8,0.-3,3.31,7.12,93324.10,688.59
34486,2,9.55,0.83,0.68,0.4,0.-11,0.-6,3.37,7.11,93321.92,688.30
34520,2,9.56,0.54,0.82,0.4,0.-8,0.-4,3.25,7.11,93327.35,688.88
34554,2,9.29,0.89,1.18,0.4,0.-8,0.-5,3.31,7.10,93332.78,688.69
34588,2,9.85,0.25,0.79,0.4,0.-8,0.-5,3.25,7.11,93324.10,688.20
34623,2,9.84,0.47,0.88,0.4,0.-8,0.-3,3.31,7.10,93325.18,688.30
34657,2,9.80,0.45,0.87,0.4,0.-8,0.-3,3.25,7.10,93325.18,687.72
34691,2,9.83,0.44,0.80,0.4,0.-8,0.-3,3.31,7.11,93325.18,688.49
34725,2,9.80,0.44,0.85,0.3,0.-8,0.-3,3.25,7.10,93331.70,688.98
34759,2,9.78,0.44,0.80,0.3,0.-8,0.-4,3.25,7.10,93320.85,688.40
34793,2,9.83,0.52,0.79,0.4,0.-9,0.-4,3.31,7.10,93325.19,688.30
34827,2,9.81,0.44,0.75,0.4,0.-9,0.-3,3.25,7.9,93325.19,688.98
34861,2,9.79,0.51,0.78,0.4,0.-9,0.-4,3.18,7.9,93329.53,688.49
34896,2,9.76,0.51,0.69,0.3,0.-8,0.-4,3.18,7.10,93320.85,688.59
34930,2,9.77,0.47,0.76,0.4,0.-9,0.-4,3.18,7.9,93324.10,688.98
34964,2,9.79,0.50,0.70,0.4,0.-9,0.-3,3.25,7.9,93331.70,688.40
34998,2,9.82,0.42,0.73,0.3,0.-8,0.-4,3.18,7.9,93319.76,688.59
35032,2,9.79,0.49,0.71,0.3,0.-9,0.-4,3.12,7.9,93321.93,689.17
35067,2,9.82,0.49,0.76,0.3,0.-8,0.-4,3.12,7.9,93323.2,689.17
35101,2,9.81,0.45,0.77,0.4,0.-9,0.-4,3.12,7.9,93327.36,688.20
35135,2,9.83,0.49,0.77,0.4,0.-9,0.-4,3.12,7.9,93328.45,687.72
35170,2,9.74,0.50,0.83,0.3,0.-8,0.-3,3.6,7.8,93325.19,688.78
35204,2,9.77,0.49,0.74,0.4,0.-9,0.-4,3.12,7.9,93326.28,688.49
35238,2,9.81,0.48,0.77,0.4,0.-9,0.-4,3.12,7.8,93328.45,687.91
35272,2,9.82,0.43,0.76,0.4,0.-8,0.-3,3.0,7.8,93328.45,687.82
35306,2,9.81,0.44,0.76,0.3,0.-8,0.-3,3.12,7.8,93325.19,688.1
35340,2,9.80,0.46,0.76,0.3,0.-8,0.-3,3.12,7.9,93325.19,688.20
35374,2,9.78,0.53,0.70,0.3,0.-8,0.-3,3.0,7.8,93328.45,688.49
35408,2,9.79,0.49,0.71,0.4,0.-9,0.-3,3.12,7.7,93323.2,688.49
35442,2,9.80,0.45,0.71,0.4,0.-9,0.-3,3.6,7.7,93327.36,688.49
35477,2,9.79,0.53,0.66,0.3,0.-8,0.-3,3.0,7.8,93320.85,688.40
35511,2,9.84,0.52,0.76,0.3,0.-8,0.-4,3.0,7.6,93328.45,688.20
35545,2,9.80,0.50,0.73,0.4,0.-9,0.-4,3.0,7.7,93323.3,688.49
35579,2,9.76,0.53,0.71,0.4,0.-9,0.-4,3.0,7.6,93323.3,688.20
35613,2,9.77,0.46,0.74,0.4,0.-8,0.-4,3.0,7.6,93315.42,688.69
35647,2,9.79,0.47,0.76,0.3,0.-8,0.-4,3.0,7.6,93328.45,688.59
35681,2,9.79,0.48,0.75,0.3,0.-8,0.-3,3.0,7.7,93320.85,688.30
35715,2,9.80,0.47,0.74,0.3,0.-8,0.-3,3.0,7.7,93327.36,688.69
35750,2,9.78,0.47,0.73,0.4,0.-9,0.-4,3.0,7.6,93321.94,688.88
35784,2,9.80,0.52,0.72,0.3,0.-8,0.-3,3.0,7.7,93325.19,688.40
35818,2,9.77,0.46,0.71,0.3,0.-8,0.-3,3.0,7.6,93321.94,688.20
35852,2,9.82,0.44,0.77,0.3,0.-8,0.-3,3.0,7.7,93325.20,688.59
35886,2,9.81,0.45,0.71,0.4,0.-9,0.-3,3.0,7.6,93328.45,688.40
35920,2,9.79,0.49,0.71,0.4,0.-9,0.-4,2.93,7.7,93326.28,688.69
35954,2,9.81,0.45,0.76,0.4,0.-9,0.-4,2.93,7.6,93324.11,688.88
35988,2,9.79,0.51,0.70,0.4,0.-9,0.-3,3.0,7.7,93327.36,688.40
36023,2,9.77,0.51,0.74,0.3,0.-9,0.-3,3.0,7.6,93323.3,688.30
36057,2,9.83,0.47,0.72,0.4,0.-9,0.-4,2.93,7.5,93326.28,688.30
36092,2,9.81,0.49,0.79,0.3,0.-9,0.-4,3.0,7.6,93326.28,688.30
36126,2,9.83,0.53,0.78,0.4,0.-9,0.-4,2.87,7.6,93323.3,688.69
36160,2,9.78,0.48,0.76,0.4,0.-9,0.-4,2.93,7.6,93326.28,688.30
36194,2,9.78,0.51,0.72,0.4,0.-9,0.-4,2.93,7.6,93325.20,688.49
36228,2,9.81,0.46,0.78,0.4,0.-9,0.-4,2.93,7.5,93329.53,688.88
36262,2,9.88,0.37,0.75,0.4,0.-9,0.-4,2.93,7.5,93332.79,688.20
36296,2,9.82,0.45,0.73,0.4,0.-8,0.-3,3.0,7.6,93320.85,688.78
36331,2,9.84,0.48,0.77,0.3,0.-9,0.-3,3.0,7.6,93326.28,688.78
36365,2,9.82,0.45,0.74,0.3,0.-8,0.-4,3.0,7.5,93328.45,688.40
36399,2,9.79,0.43,0.78,0.3,0.-8,0.-3,3.0,7.6,93324.11,688.49
36433,2,9.79,0.48,0.71,0.3,0.-8,0.-3,2.93,7.6,93327.36,688.11
36467,2,9.84,0.42,0.72,0.3,0.-8,0.-3,2.93,7.6,93327.36,688.59
36501,2,9.80,0.47,0.77,0.3,0.-8,0.-3,2.93,7.6,93329.53,688.49
36535,2,9.79,0.52,0.72,0.4,0.-9,0.-4,2.87,7.6,93317.60,688.40
36569,2,9.83,0.42,0.75,0.4,0.-9,0.-4,2.93,7.6,93327.37,688.30
36604,2,9.80,0.44,0.75,0.3,0.-8,0.-3,2.93,7.6,93328.45,688.20
36638,2,9.80,0.41,0.73,0.4,0.-9,0.-4,2.93,7.6,93324.11,688.1
36672,2,9.85,0.55,0.88,0.4,0.-9,0.-4,2.87,7.6,93317.60,688.40
36706,2,9.77,0.39,0.86,0.4,0.-9,0.-3,2.93,7.5,93326.28,688.59
36740,2,9.82,0.31,0.68,0.3,0.-8,0.-4,2.87,7.5,93325.20,688.11
36774,2,9.86,0.46,0.80,0.3,0.-8,0.-3,2.87,7.5,93318.68,688.49
36808,2,9.82,0.44,0.77,0.3,0.-8,0.-3,2.93,7.5,93327.37,687.91
36842,2,9.83,0.46,0.78,0.3,0.-8,0.-3,2.87,7.5,93323.3,688.20
36877,2,9.82,0.45,0.77,0.3,0.-8,0.-4,2.93,7.4,93324.11,688.40
36911,2,9.82,0.45,0.80,0.3,0.-8,0.-4,2.93,7.5,93329.54,688.40
36945,2,9.79,0.51,0.81,0.3,0.-8,0.-3,2.87,7.5,93318.68,688.11
36979,2,9.81,0.49,0.81,0.4,0.-8,0.-4,2.87,7.5,93326.28,688.59
37013,2,9.84,0.49,0.81,0.3,0.-9,0.-4,2.93,7.5,93324.11,688.11
37047,2,9.77,0.53,0.87,0.4,0.-9,0.-4,2.93,7.6,93327.37,688.49
37081,2,9.79,0.44,0.84,0.4,0.-9,0.-4,2.93,7.4,93325.20,688.40
37116,2,9.86,0.51,0.79,0.4,0.-8,0.-4,2.87,7.5,93330.63,688.20
37150,2,9.81,0.44,0.85,0.3,0.-8,0.-3,2.87,7.4,93326.28,688.20
37185,2,9.81,0.48,0.83,0.4,0.-8,0.-5,2.93,7.5,93323.3,688.40
37219,2,9.82,0.47,0.91,0.3,0.-8,0.-3,2.93,7.4,93326.28,687.91
37253,2,9.77,0.48,0.86,0.3,0.-8,0.-3,2.87,7.5,93324.11,688.59
37287,2,10.98,0.43,0.82,0.4,0.-9,0.-4,2.87,7.4,93327.37,688.40
37321,2,9.83,0.44,0.86,0.4,0.-8,0.-4,2.87,7.4,93319.77,688.59
37355,2,9.76,0.50,0.83,0.4,0.-8,0.-5,2.87,7.4,93324.11,688.88
37389,2,9.81,0.51,0.82,0.4,0.-8,0.-5,2.93,7.5,93325.20,687.91
37423,2,13.95,2.33,8.94,0.-73,3.35,0.91,2.93,7.4,93324.11,688.78
37458,2,9.33,0.-13,1.0,0.-7,0.77,0.23,2.87,7.4,93320.85,688.11
37492,2,8.98,0.58,0.33,0.5,0.-15,0.-5,2.87,7.3,93326.28,688.88
37526,2,10.9,0.68,0.40,0.3,0.-7,0.-3,2.93,7.4,93324.11,688.30
37560,2,14.6,1.61,-8.-19,-1.-74,0.14,0.-30,2.93,7.4,93321.94,688.40
37594,2,12.52,-6.-5,6.5,-2.-16,-1.-78,0.-60,2.93,7.4,93323.3,688.59
37628,2,17.77,0.9,6.50,-1.-55,0.-3,-2.-98,2.93,7.3,93330.63,687.91
37662,2,18.90,9.82,2.83,6.5,-1.-72,-1.-99,2.93,7.3,93327.37,688.49
37696,2,26.31,24.46,-5.-46,11.75,-3.-85,-8.-95,2.93,7.2,93321.95,688.59
37731,2,21.5,18.77,-11.-5,5.74,-4.-2,-6.-71,2.87,7.2,93325.21,688.59
37765,2,10.94,1.45,-14.-3,7.51,-7.-14,-4.-94,2.87,7.1,93323.3,688.68
37799,2,5.71,6.55,-9.-24,1.98,-6.-37,-5.-82,2.93,7.0,93317.61,688.68
37833,2,4.11,2.8,-1.-38,-1.-77,-5.-50,0.-9,2.87,6.99,93320.87,688.97
37867,2,2.47,6.48,-4.-13,-1.-20,-5.-5,-3.-84,2.87,6.96,93317.61,688.59
37901,2,3.32,0.73,2.56,-2.-97,-3.-77,-3.-1,2.87,6.94,93315.45,688.88
37935,2,3.12,-2.-29,2.12,-3.-46,-3.-40,-5.-96,2.93,6.93,93318.71,689.17
37970,2,2.60,-4.-98,1.3,-1.-11,-3.-41,-4.-31,3.0,6.91,93310.3,689.26
38004,2,-2.-69,-6.-99,1.53,-1.-82,-1.-79,-1.-55,2.93,6.91,93318.71,689.7
38038,2,1.63,-3.-17,1.93,-4.-8,1.42,0.-22,2.93,6.91,93320.88,689.17
38072,2,-8.-3,3.27,-10.-61,-3.-16,2.2,1.65,2.87,6.89,93317.62,688.88
38106,2,-7.-97,1.50,-4.-30,-1.-72,0.67,1.6,2.87,6.89,93310.3,689.17
38141,2,-8.-24,4.81,-3.-67,0.-64,0.-21,2.22,2.87,6.90,93314.36,688.30
38175,2,-7.-9,7.83,-3.-31,0.-33,0.-48,1.90,2.93,6.89,93315.45,689.26
38210,2,-2.-62,13.64,-5.-49,0.-85,0.-43,1.93,2.87,6.89,93319.79,689.7
38244,2,-2.-24,8.30,-2.-89,0.2,-1.-34,0.-40,2.87,6.88,93313.28,689.26
38278,2,-1.-34,7.65,-4.-45,-1.-71,0.69,0.97,2.81,6.88,93317.62,689.17
38312,2,0.20,14.25,0.17,0.26,0.-65,-1.-60,2.81,6.87,93315.45,689.26
38346,2,-5.-55,5.30,0.-34,0.-74,0.29,-1.-64,2.87,6.88,93311.11,688.49
38380,2,-5.-77,6.70,-6.-19,0.-76,0.40,0.53,2.87,6.87,93315.45,689.26
38414,2,0.-49,13.74,-1.-18,0.-9,0.-22,1.22,2.93,6.88,93318.71,689.36
38448,2,-1.-71,10.63,0.-42,0.-85,0.96,0.72,2.81,6.87,93314.37,688.97
38483,2,-4.-31,9.83,-1.-45,0.61,0.76,-2.-50,2.87,6.88,93315.45,689.55
38517,2,-8.-3,10.76,-4.-39,0.-33,0.-9,-1.-88,2.81,6.88,93318.71,689.7
38551,2,-5.-69,7.2,1.27,0.-32,0.-56,0.-8,2.81,6.89,93314.37,689.26
38585,2,-4.-49,7.44,0.62,-1.-42,0.33,1.49,2.81,6.89,93314.36,689.17
38619,2,-4.-39,7.11,1.68,0.-84,0.23,1.41,2.87,6.89,93316.53,689.65
38653,2,-4.-66,6.28,1.12,-1.-88,0.71,1.72,2.81,6.89,93314.36,689.46
38687,2,0.26,17.2,0.35,0.34,0.17,1.47,2.87,6.89,93319.79,689.7
38722,2,-2.-37,5.83,2.45,0.-59,0.41,0.-86,2.75,6.89,93316.53,689.36
38756,2,1.48,2.29,-7.-99,-1.-89,0.97,0.-24,2.75,6.90,93312.20,689.17
38790,2,-3.-71,13.39,-1.-44,-3.-20,0.80,0.29,2.75,6.90,93311.11,689.17
38824,2,-3.-19,5.93,2.12,0.-25,0.25,0.76,2.81,6.91,93318.71,689.17
38858,2,-2.-19,7.94,1.30,0.28,0.29,0.34,2.75,6.90,93307.85,689.36
38892,2,-3.-50,12.33,0.5,0.50,0.60,0.87,2.81,6.91,93310.3,689.26
38926,2,-2.-73,5.93,0.98,0.19,0.36,0.26,2.81,6.91,93317.62,688.97
38960,2,-3.-19,6.54,0.78,0.-75,0.-70,1.11,2.75,6.91,93311.11,689.26
38995,2,-2.-56,10.38,2.23,0.-38,1.2,1.45,2.81,6.90,93316.53,689.7
39029,2,-4.-90,11.81,1.51,0.-7,1.83,0.-51,2.75,6.90,93316.53,688.97
39063,2,-4.-13,9.65,-5.-86,1.63,1.96,0.-73,2.87,6.90,93308.94,689.17
39097,2,-5.-77,13.67,0.-35,2.75,2.7,0.-34,2.81,6.90,93311.11,689.46
39131,2,-2.-32,15.56,-4.-39,4.93,2.84,2.47,2.87,6.88,93316.53,689.36
39166,2,-3.-69,14.57,0.-43,4.2,4.26,3.54,2.87,6.88,93316.53,688.97
39200,2,0.-15,11.24,-5.-47,3.59,3.92,4.32,2.81,6.87,93314.37,689.36
39235,2,0.69,12.91,-7.-90,2.53,3.79,4.59,2.81,6.87,93315.45,689.7
39269,2,1.32,9.45,-2.-37,1.73,4.72,6.24,2.81,6.86,93312.20,689.36
39303,2,3.97,5.51,1.5,-2.-72,4.15,7.1,2.81,6.86,93316.53,689.7
39337,2,5.2,2.18,0.43,-6.-21,3.32,5.73,2.87,6.85,93314.37,689.46
39371,2,6.79,1.64,2.11,-9.-10,4.59,2.79,2.87,6.85,93308.94,689.36
39405,2,8.35,3.69,2.37,-8.-26,4.50,-1.-47,2.81,6.84,93311.11,689.65
39439,2,5.69,0.-30,0.73,-8.-34,4.27,-2.-90,2.81,6.86,93312.20,689.84
39473,2,9.80,7.77,7.20,-4.-81,2.15,-1.-89,2.87,6.86,93313.28,689.84
39508,2,5.61,0.42,2.72,-1.-91,0.-43,1.56,2.87,6.87,93315.45,689.36
39542,2,0.62,-4.-36,4.66,-5.-4,4.39,0.-95,2.87,6.85,93314.37,689.75
39576,2,8.37,1.28,12.30,-5.-32,6.32,-3.-60,2.87,6.86,93314.37,689.26
39610,2,2.78,0.25,10.57,-1.-48,-1.-35,2.37,2.87,6.86,93307.85,689.7
39644,2,0.-49,-8.-3,1.95,-2.-85,0.-50,2.0,2.87,6.85,93313.28,689.36
39678,2,6.86,-3.-94,4.35,0.-76,1.53,0.-77,2.87,6.86,93308.94,689.75
39712,2,5.72,-1.-46,10.49,0.-17,1.15,0.43,2.87,6.86,93312.20,689.46
39746,2,9.3,-3.-86,6.71,0.-67,0.19,1.2,2.87,6.86,93302.43,689.46
39781,2,5.34,-6.-25,7.93,0.28,0.17,1.62,2.87,6.86,93308.94,689.46
39815,2,3.99,-2.-94,10.82,0.-1,1.74,0.-18,2.81,6.85,93315.45,689.84
39849,2,1.94,-1.-75,11.97,0.7,1.71,0.0,2.93,6.85,93311.11,689.46
39883,2,1.87,-2.-2,9.60,0.45,0.-7,1.11,2.87,6.86,93308.94,689.94
39917,2,3.68,-3.-94,6.69,0.75,0.65,0.38,2.87,6.84,93313.28,689.46
39951,2,2.8,-2.-66,8.47,0.99,1.77,0.-26,2.81,6.85,93310.3,689.75
39985,2,1.82,-1.-23,9.75,1.5,1.29,0.1,2.81,6.86,93320.88,688.97
40019,2,0.35,-1.-57,12.18,0.64,1.5,0.11,2.87,6.85,93311.11,689.26
40054,2,1.77,-1.-34,11.27,0.10,0.11,0.9,2.87,6.85,93314.37,689.46
40097,2,1.33,-1.-78,7.43,0.34,0.-59,0.21,2.81,6.84,93312.20,689.55
40131,2,1.95,0.1,8.61,0.31,0.-25,0.-35,2.87,6.84,93311.11,689.26
40166,2,2.4,0.0,8.70,0.-29,0.-38,0.-40,2.87,6.84,93313.28,689.65
40200,2,1.89,0.-80,8.11,0.-24,0.-67,0.-31,2.81,6.83,93318.71,689.75
40234,2,2.9,-1.-94,8.40,0.-13,0.-75,0.-12,2.87,6.84,93315.46,689.46
40268,2,1.65,-2.-76,7.51,0.15,-1.-4,0.13,2.87,6.84,93317.62,689.75
40298,2,1.98,-1.-80,7.78,0.59,0.-97,0.-12,2.81,6.84,93310.3,689.46
40332,2,1.63,-3.-10,8.83,0.38,0.-64,0.-16,2.87,6.84,93316.53,689.46
40366,2,1.87,-3.-15,8.78,0.68,-1.-2,0.-14,2.81,6.83,93316.53,689.26
40400,2,2.45,-2.-61,9.4,0.87,0.-94,0.-28,2.81,6.82,93315.45,689.55
40434,2,1.95,-1.-81,9.87,0.47,0.-1,0.-63,2.87,6.83,93314.37,689.75
40468,2,2.46,-1.-68,11.18,0.60,0.-2,0.-50,2.87,6.83,93312.20,689.26
40502,2,2.19,0.-66,11.33,0.37,0.50,0.-80,2.81,6.80,93311.11,689.26
40536,2,2.92,0.-28,11.69,0.9,0.63,-1.-6,2.87,6.81,93305.69,688.97
40571,2,3.39,0.-17,11.49,0.-1,0.84,0.-89,2.87,6.80,93312.20,689.7
40605,2,3.9,-1.-49,11.6,0.0,0.72,0.9,2.93,6.80,93313.28,689.55
40639,2,2.76,-1.-78,10.6,0.36,0.32,0.52,2.93,6.80,93307.85,689.84
40673,2,2.2,-2.-61,9.12,0.10,0.55,0.60,2.93,6.79,93318.71,689.65
40707,2,0.14,-2.-96,7.20,0.4,1.27,0.51,2.87,6.81,93318.71,689.84
40741,2,0.69,-2.-57,6.33,1.11,0.1,0.66,2.93,6.79,93317.62,689.94
40775,2,-1.-6,-1.-95,8.89,0.81,0.86,0.40,2.87,6.80,93312.20,689.75
40809,2,0.-78,1.2,12.39,0.27,0.64,0.-85,2.87,6.80,93315.45,689.55
40844,2,0.1,1.28,10.14,0.-44,0.6,0.-73,2.93,6.80,93313.28,689.84
40878,2,1.30,1.22,8.42,0.-25,0.-40,0.-21,2.87,6.79,93312.20,689.26
40912,2,1.2,1.64,9.63,0.0,0.-22,0.-6,2.87,6.79,93316.53,689.7
40946,2,2.50,1.87,9.81,0.21,0.-57,0.-11,2.87,6.79,93312.20,690.4
40980,2,2.67,1.44,10.12,0.-8,0.-30,0.-19,2.87,6.79,93316.53,689.55
41014,2,1.43,0.20,10.4,0.-27,0.-7,0.32,2.87,6.78,93315.45,689.75
41048,2,0.-11,-1.-12,9.99,0.-10,0.-10,0.29,2.87,6.78,93315.45,689.46
41083,2,0.16,-1.-18,10.0,0.0,0.-1,0.3,2.87,6.78,93311.11,689.26
41117,2,1.55,-1.-24,8.94,0.29,0.-1,0.0,2.93,6.78,93316.53,689.46
41151,2,1.57,0.-66,8.82,0.64,0.5,0.28,2.87,6.78,93314.36,689.55
41186,2,-1.-52,0.75,12.8,1.93,1.55,-1.-14,2.87,6.79,93307.85,689.65
41220,2,-2.-3,0.-1,12.45,0.45,-1.-9,-3.-60,2.87,6.78,93312.20,689.55
41254,2,-5.-90,-7.-29,15.58,0.14,0.-24,0.-43,2.93,6.78,93310.3,689.7
41288,2,0.43,1.24,9.29,0.41,-1.-9,0.41,2.93,6.78,93311.11,689.84
41322,2,1.51,1.92,9.92,0.77,0.-84,1.21,3.0,6.77,93314.36,689.75
41357,2,1.94,1.97,8.80,0.45,-1.-10,2.55,2.93,6.77,93316.53,689.46
41391,2,1.45,0.89,7.83,0.41,0.-64,2.78,2.87,6.77,93313.28,689.17
41425,2,2.26,3.71,8.90,0.26,0.73,2.67,2.87,6.77,93310.3,690.4
41459,2,-4.-1,-4.-87,6.11,0.17,3.16,0.76,2.93,6.77,93316.53,689.46
41493,2,6.30,-1.-44,10.40,0.-32,1.54,0.12,2.87,6.77,93317.62,688.97
41527,2,1.13,-3.-57,8.95,0.-49,0.-54,0.66,2.87,6.77,93312.20,689.55
41561,2,4.0,0.-9,12.15,0.-92,0.13,-1.-1,2.93,6.76,93307.85,689.65
41595,2,1.14,0.-2,9.99,0.-42,0.-42,-1.-69,2.93,6.77,93323.4,688.97
41631,2,1.21,0.10,9.97,0.-26,0.80,0.-27,2.93,6.75,93312.19,688.97
41665,2,0.11,0.-56,10.3,0.-55,0.54,0.-1,2.93,6.74,93315.45,689.26
41699,2,-2.-67,-1.-2,9.67,0.-96,1.88,-2.-33,2.87,6.74,93310.3,689.55
41733,2,-3.-30,-1.-77,10.48,0.-50,0.46,-1.-12,2.93,6.74,93313.28,689.36
41767,2,1.74,-1.-29,8.90,0.-67,0.21,1.34,2.87,6.74,93316.53,689.94
41801,2,-1.-89,0.-6,16.39,0.18,1.75,0.-84,2.93,6.73,93314.36,689.17
41835,2,-4.-20,-1.-61,10.98,0.-47,0.49,0.-83,2.93,6.73,93319.78,689.75
41870,2,0.67,-4.-36,7.85,-1.-71,0.80,0.53,2.87,6.73,93313.28,689.55
41904,2,-3.-53,-2.-53,8.72,0.-35,0.-59,1.30,2.93,6.72,93321.96,689.36
41938,2,-2.-39,-3.-68,11.72,1.94,0.-97,1.3,2.87,6.72,93315.45,689.84
41972,2,-1.-96,0.-6,11.11,3.92,-2.-28,0.74,2.93,6.73,93308.94,689.55
42006,2,0.44,6.3,8.0,2.82,-2.-93,1.24,2.87,6.73,93313.28,689.84
42040,2,3.25,2.96,9.19,3.58,-3.0,0.25,2.93,6.73,93314.36,689.36
42074,2,3.64,3.65,9.50,0.97,-2.0,0.93,2.87,6.73,93315.45,689.55
42108,2,0.22,3.12,10.49,-1.-7,0.-87,1.49,2.87,6.73,93315.45,689.55
42143,2,1.47,1.84,7.62,0.-93,-4.-31,5.7,2.87,6.73,93308.94,689.65
42177,2,5.92,1.50,8.37,-2.-3,-5.-83,6.40,2.87,6.73,93317.61,689.36
42212,2,7.58,0.38,9.58,-3.-6,-3.-41,6.29,2.81,6.73,93308.94,689.55
42246,2,3.1,-6.-29,1.16,-4.-34,-1.-66,5.51,2.87,6.75,93313.28,689.17
42280,2,0.75,-3.-68,2.63,-5.-56,0.-21,2.41,2.81,6.74,93311.11,689.46
42314,2,0.13,-15.-98,2.95,-6.-85,-2.-67,2.8,2.87,6.75,93311.10,689.94
42348,2,5.18,-9.-70,0.72,0.47,0.-68,0.-32,2.87,6.74,93306.77,689.46
42382,2,3.35,-5.-15,4.63,1.43,1.58,-1.-41,2.87,6.73,93315.45,689.55
42417,2,5.74,-7.-28,4.12,0.89,2.49,-3.-48,2.87,6.71,93310.2,689.7
42451,2,8.64,-4.-64,2.47,1.23,2.52,-3.-42,2.87,6.70,93308.93,689.55
42485,2,1.69,-3.-82,9.38,1.79,8.17,-5.-5,2.81,6.69,93314.35,689.46
42519,2,3.45,-3.-53,9.39,1.34,7.78,-5.-26,2.87,6.67,93310.2,689.46
42553,2,1.14,-2.-51,11.51,1.25,5.95,-2.-7,2.81,6.67,93316.52,689.36
42587,2,-2.-57,-2.-79,8.59,0.58,0.-4,1.46,2.81,6.65,93311.10,689.55
42621,2,1.68,-4.-6,4.82,1.65,0.81,-1.-10,2.81,6.64,93313.26,689.65
42656,2,2.30,0.94,12.42,1.54,1.71,0.-90,2.87,6.64,93310.1,689.26
42690,2,-1.-86,0.-39,10.4,0.60,0.72,0.-23,2.81,6.63,93317.60,689.17
42724,2,4.9,-1.-10,9.31,0.59,-1.-73,0.-40,2.81,6.64,93307.84,689.55
42758,2,2.85,0.-77,9.48,0.53,0.-94,0.60,2.75,6.63,93314.35,689.36
42792,2,-1.-14,-1.-32,9.81,0.-38,0.-13,0.-57,2.81,6.64,93307.84,689.26
42826,2,1.46,-2.-29,8.98,0.2,0.-43,0.24,2.81,6.64,93308.92,689.17
42860,2,0.46,0.74,8.76,0.-29,-1.-44,0.-4,2.75,6.64,93313.26,689.46
42894,2,0.97,-1.-86,8.37,0.-30,0.64,0.-44,2.75,6.64,93315.43,689.17
42929,2,0.33,-2.-60,12.24,0.-33,0.80,0.-79,2.75,6.64,93312.18,689.46
42963,2,2.5,0.-36,10.86,0.-8,0.-66,0.25,2.81,6.64,93308.92,689.65
42997,2,1.60,0.78,10.19,0.21,0.-60,0.47,2.75,6.64,93310.1,689.36
43031,2,0.8,-1.-94,9.3,0.19,0.18,0.17,2.81,6.63,93316.52,689.65
43065,2,1.87,-1.-30,9.29,0.-18,0.81,0.4,2.81,6.63,93314.35,689.46
43099,2,0.68,-1.-8,9.7,0.55,0.33,0.-8,2.81,6.63,93317.60,689.46
43133,2,2.29,-1.-32,9.51,0.98,0.-28,0.-19,2.75,6.64,93318.68,689.17
43167,2,3.36,-2.-39,8.50,0.65,0.-6,0.56,2.75,6.64,93312.17,689.94
43202,2,-2.-72,-2.-51,9.23,0.31,1.75,0.37,2.81,6.63,93313.26,689.46
43237,2,0.-49,-1.-90,7.50,0.73,0.97,0.-82,2.75,6.63,93315.43,689.94
43271,2,-2.-24,0.-87,7.67,0.24,0.15,0.-10,2.81,6.63,93308.92,689.27
43305,2,-3.-18,0.52,10.52,0.39,0.17,-1.-24,2.81,6.63,93313.26,689.65
43339,2,2.87,0.-28,9.12,0.-22,0.12,-1.-50,2.75,6.62,93312.17,690.13
43373,2,4.73,0.-1,12.14,0.-1,0.-91,0.43,2.75,6.62,93312.17,689.17
43407,2,3.50,0.-9,11.49,0.-74,-2.-10,2.70,2.75,6.61,93315.42,689.36
43442,2,0.1,-3.-95,1.73,0.-30,-1.-12,0.94,2.75,6.60,93310.0,689.65
43476,2,0.-34,0.79,10.36,0.43,0.78,-1.-13,2.81,6.59,93315.42,689.17
43510,2,0.-90,0.-15,10.82,0.51,0.35,0.-62,2.75,6.59,93319.76,689.27
43544,2,0.-22,0.35,10.4,0.26,0.-56,0.-36,2.75,6.60,93318.67,688.88
43578,2,0.82,0.12,10.7,0.-1,0.-18,0.-6,2.75,6.58,93317.59,689.75
43612,2,0.30,0.9,10.5,0.-6,0.-52,0.16,2.68,6.58,93316.50,689.75
43646,2,0.-15,0.-36,9.99,0.-6,-1.-9,0.63,2.75,6.58,93312.17,689.56
43680,2,1.69,-1.-4,10.84,0.4,0.-62,0.90,2.75,6.57,93312.16,689.36
43715,2,2.72,0.-64,9.35,0.-16,0.-74,0.52,2.81,6.57,93306.74,689.17
43749,2,1.93,0.-46,9.28,0.-15,0.-50,0.18,2.81,6.57,93314.33,689.17
43783,2,1.95,0.-44,9.85,0.0,0.-19,0.17,2.81,6.57,93317.59,689.56
43817,2,1.83,0.-73,9.7,0.6,0.7,0.6,2.75,6.57,93312.16,689.65
43851,2,2.3,0.-69,9.67,0.8,0.59,0.-47,2.81,6.57,93311.7,689.36
43885,2,0.51,1.75,10.61,0.18,1.3,0.-94,2.75,6.58,93310.0,689.75
43919,2,0.45,-1.-50,9.26,0.-5,0.-8,0.-72,2.75,6.57,93316.50,689.75
43953,2,1.20,0.-51,9.83,0.-1,0.-15,0.39,2.68,6.58,93308.91,689.27
43988,2,1.48,1.80,9.91,0.18,0.36,0.6,2.75,6.58,93310.0,689.56
44022,2,4.99,2.32,11.88,0.-50,0.-15,-1.-2,2.81,6.57,93314.33,689.75
44056,2,0.35,-2.-63,7.84,0.-29,-1.-46,1.8,2.75,6.58,93304.57,689.65
44090,2,0.93,-4.-48,5.65,0.69,-1.-2,0.10,2.75,6.58,93314.33,689.75
44124,2,0.39,-1.-1,9.98,1.33,0.-2,-1.-3,2.75,6.58,93306.75,690.13
44158,2,1.56,0.62,11.48,0.64,0.57,-1.-40,2.75,6.58,93313.25,690.13
44192,2,0.68,0.13,9.93,0.2,0.-64,0.-2,2.75,6.57,93313.25,689.17
44226,2,2.86,1.62,10.60,0.-14,0.-87,0.9,2.81,6.58,93307.83,689.7
44262,2,3.18,7.21,6.17,0.-38,0.6,0.-9,2.75,6.57,93315.42,689.65
44296,2,2.1,0.-45,6.73,0.27,0.-47,0.22,2.75,6.58,93311.8,689.17
44330,2,3.64,0.24,10.62,0.21,0.-97,0.12,2.75,6.57,93313.25,689.7
44364,2,1.88,0.43,7.47,0.14,0.-37,0.94,2.75,6.57,93316.50,689.17
44398,2,3.68,3.85,4.91,0.13,0.10,-1.-1,2.68,6.57,93314.33,689.27
44432,2,4.51,1.20,9.43,0.-20,0.-34,0.31,2.75,6.57,93308.91,689.56
44466,2,2.8,-1.-30,9.84,0.6,0.-26,0.-77,2.75,6.57,93315.41,690.14
44501,2,-1.-18,1.45,8.60,0.77,0.21,0.-72,2.75,6.55,93311.7,689.56
44535,2,1.68,0.9,14.48,0.-90,0.21,0.52,2.75,6.55,93308.90,689.85
44569,2,3.21,0.44,9.28,0.7,0.-4,0.-76,2.81,6.54,93316.49,689.27
44603,2,3.6,0.69,9.77,0.11,0.-11,0.-92,2.75,6.54,93307.82,689.17
44637,2,2.43,0.81,9.43,0.-20,0.-15,0.-22,2.75,6.54,93316.49,688.88
44671,2,2.87,1.67,8.79,0.-16,0.31,0.-11,2.81,6.53,93308.90,689.56
44705,2,1.36,3.51,12.73,-1.-1,0.79,0.29,2.81,6.53,93307.82,689.85
44739,2,2.92,1.74,9.5,0.31,0.-5,0.-81,2.75,6.54,93317.57,689.27
44774,2,1.19,-3.-45,9.41,0.17,0.-11,0.-5,2.75,6.53,93308.90,689.75
44808,2,1.8,0.-79,10.77,0.28,0.15,0.7,2.81,6.53,93314.32,689.17
44842,2,1.53,0.68,10.40,0.18,0.-11,0.16,2.81,6.54,93317.57,689.36
44876,2,5.57,-1.-66,9.24,0.-69,0.33,0.4,2.81,6.54,93313.24,689.56
44910,2,2.53,0.14,9.70,0.3,0.-2,0.-17,2.81,6.54,93313.24,689.36
44944,2,2.4,0.-11,9.22,0.-4,0.-21,0.56,2.75,6.54,93311.7,689.36
44978,2,2.13,0.-89,9.7,0.-27,0.-12,0.54,2.75,6.53,93315.40,689.36
45012,2,3.11,0.-53,9.82,0.-23,0.-14,0.-34,2.75,6.53,93313.24,689.17
45047,2,1.56,0.-45,6.6,0.45,1.21,0.-88,2.75,6.53,93306.73,689.85
45081,2,1.53,0.84,10.0,0.7,0.5,0.-21,2.75,6.54,93320.82,689.46
45115,2,0.69,-2.-56,11.47,0.15,0.-4,0.80,2.81,6.53,93309.98,689.36
45149,2,0.75,0.1,8.51,0.37,0.-12,0.84,2.75,6.52,93313.23,689.17
45183,2,1.95,0.-94,9.84,0.22,0.0,0.-2,2.81,6.52,93318.65,689.56
45217,2,2.56,0.0,11.44,0.28,0.-5,0.-3,2.81,6.51,93311.6,689.56
45251,2,2.74,0.-53,8.90,0.-24,0.-18,0.2,2.81,6.51,93316.48,689.65
45286,2,2.70,0.92,9.69,0.-31,0.-14,0.1,2.81,6.50,93312.14,689.65
45324,2,4.1,-1.-67,9.49,0.57,0.-10,0.-80,2.81,6.50,93314.31,689.36
45358,2,1.89,-2.-7,8.51,0.58,0.-1,0.-2,2.81,6.51,93311.6,689.56
45392,2,2.51,5.65,11.48,0.-44,0.2,0.27,2.81,6.50,93306.72,688.98
45426,2,3.28,-5.-20,10.78,0.9,0.-9,0.-7,2.75,6.51,93309.97,689.65
45460,2,1.10,4.3,9.30,0.17,0.-15,0.2,2.75,6.50,93309.97,689.46
45494,2,2.23,9.99,10.27,0.1,0.-9,0.4,2.81,6.51,93312.14,689.17
45528,2,4.65,8.32,10.80,0.11,0.-4,0.5,2.75,6.50,93312.14,689.85
45562,2,3.13,-1.-21,11.21,0.32,0.-2,0.-12,2.81,6.51,93313.23,688.98
45597,2,0.9,0.0,7.91,0.30,0.-21,0.-9,2.81,6.52,93314.32,689.27
45631,2,2.23,0.3,8.63,0.16,0.-15,0.-15,2.68,6.51,93317.57,689.17
45665,2,2.26,2.7,10.58,0.11,0.-17,0.-24,2.81,6.52,93308.89,689.17
45699,2,1.46,2.3,9.35,0.3,0.-29,0.-25,2.75,6.51,93312.14,689.85
45733,2,1.0,1.33,8.21,0.-1,0.-28,0.-15,2.75,6.52,93311.7,689.94
45767,2,1.29,0.71,9.92,0.-5,0.5,0.0,2.75,6.52,93311.7,689.17
45801,2,1.83,0.79,10.64,0.0,0.6,0.6,2.68,6.52,93314.32,689.46
45835,2,2.20,0.58,9.70,0.5,0.-11,0.9,2.75,6.53,93312.15,689.65
45870,2,2.45,0.30,9.73,0.10,0.-10,0.8,2.68,6.52,93305.64,689.17
45904,2,2.24,0.45,9.93,0.14,0.0,0.3,2.68,6.52,93318.65,688.98
45938,2,1.40,0.19,10.34,0.17,0.0,0.-4,2.75,6.52,93308.89,689.65
45972,2,1.85,0.62,9.41,0.16,0.-3,0.-7,2.75,6.52,93314.32,689.65
46006,2,2.51,1.1,9.55,0.15,0.-8,0.-15,2.68,6.52,93315.40,689.56
46040,2,2.0,1.17,9.20,0.13,0.-9,0.-21,2.68,6.53,93311.7,689.75
46074,2,1.29,1.21,9.55,0.9,0.4,0.-20,2.75,6.52,93308.90,689.27
46108,2,1.58,0.69,9.76,0.8,0.0,0.-15,2.75,6.52,93317.57,689.27
46143,2,2.3,0.28,9.75,0.10,0.-2,0.-14,2.75,6.53,93313.24,689.36
46177,2,1.86,0.92,9.66,0.13,0.-4,0.-16,2.68,6.54,93316.49,689.36
46211,2,1.40,1.29,9.47,0.13,0.-7,0.-15,2.68,6.53,93306.73,689.46
46245,2,2.33,0.11,9.64,0.11,0.-6,0.-18,2.68,6.54,93320.82,689.46
46279,2,2.12,0.82,9.95,0.11,0.-7,0.-23,2.62,6.54,93316.49,689.27
46314,2,1.51,0.54,9.82,0.12,0.-5,0.-27,2.75,6.54,93313.24,689.94
46348,2,2.2,0.49,9.79,0.11,0.-4,0.-30,2.75,6.54,93315.41,690.14
46382,2,2.24,1.75,9.39,0.16,0.2,0.-37,2.68,6.53,93312.15,689.17
46417,2,1.28,3.64,9.59,0.14,0.-7,0.-40,2.68,6.54,93315.41,689.46
46451,2,1.24,1.15,9.20,0.9,0.-8,0.-30,2.68,6.54,93312.15,689.75
46485,2,1.53,1.29,9.70,0.9,0.0,0.-28,2.68,6.53,93312.15,689.65
46519,2,1.91,0.92,9.45,0.17,0.-2,0.-26,2.68,6.53,93315.41,688.79
46553,2,1.56,1.63,10.8,0.21,0.6,0.-26,2.68,6.52,93307.82,689.7
46587,2,1.25,1.62,9.75,0.23,0.-2,0.-25,2.75,6.53,93312.15,690.4
46621,2,1.38,2.3,9.98,0.23,0.0,0.-22,2.62,6.54,93313.24,689.27
46655,2,0.91,1.66,9.24,0.21,0.-12,0.-20,2.68,6.54,93312.15,689.46
46690,2,0.51,1.41,9.0,0.14,0.-11,0.-13,2.62,6.53,93311.7,689.7
46724,2,0.71,1.37,9.20,0.5,0.-10,0.-5,2.68,6.52,93316.49,689.7
46758,2,2.12,1.98,10.1,0.0,0.-14,0.2,2.68,6.52,93308.90,689.85
46792,2,3.27,1.91,9.81,0.0,0.-14,0.-3,2.68,6.53,93314.32,689.27
46826,2,1.41,1.15,8.41,0.-1,0.-8,0.-9,2.75,6.53,93309.98,689.17
46860,2,0.21,1.16,8.71,0.-12,0.-2,0.0,2.68,6.52,93307.82,689.7
46894,2,1.9,0.5,9.67,0.-13,0.9,0.6,2.75,6.53,93316.49,689.36
46928,2,1.55,2.11,10.68,0.-18,0.-13,0.4,2.68,6.52,93314.32,690.4
46963,2,2.43,2.49,11.21,0.-11,0.-18,0.0,2.68,6.53,93311.7,689.75
46997,2,2.44,2.20,10.49,0.5,0.-4,0.-9,2.68,6.53,93308.90,690.14
47031,2,2.27,1.39,10.15,0.16,0.-4,0.-14,2.68,6.53,93314.32,689.46
47065,2,1.73,1.39,9.85,0.29,0.-26,0.-16,2.68,6.53,93312.15,689.56
47099,2,1.23,2.31,8.40,0.34,0.-35,0.-15,2.62,6.53,93315.41,689.56
47133,2,1.86,2.5,9.85,0.33,0.-22,0.-14,2.62,6.53,93312.15,689.17
47167,2,1.64,1.30,9.53,0.34,0.-37,0.-19,2.62,6.53,93317.57,689.65
47201,2,1.56,1.54,9.16,0.35,0.-29,0.-20,2.62,6.54,93318.66,689.94
47236,2,1.34,1.98,9.43,0.38,0.-18,0.-15,2.68,6.54,93313.24,689.94
47270,2,0.84,2.21,9.39,0.38,0.-15,0.-11,2.68,6.54,93314.32,689.85
47304,2,1.32,2.27,9.10,0.35,0.-10,0.-5,2.62,6.54,93308.90,688.88
47339,2,1.52,2.19,8.75,0.32,0.-15,0.-1,2.68,6.54,93316.49,689.46
47373,2,1.45,2.34,9.13,0.24,0.-4,0.0,2.68,6.52,93309.98,689.85
47407,2,1.1,2.42,9.22,0.14,0.2,0.4,2.62,6.53,93316.49,690.14
47441,2,2.34,1.82,9.15,0.6,0.-6,0.3,2.62,6.53,93313.24,689.17
47475,2,1.64,2.10,9.76,0.-2,0.-3,0.0,2.62,6.52,93316.49,689.36
47510,2,1.29,2.40,9.32,0.-2,0.-6,0.0,2.62,6.52,93307.81,689.56
47544,2,2.45,2.1,8.87,0.-10,0.-10,0.0,2.68,6.52,93313.23,689.17
47578,2,1.44,2.30,9.33,0.-16,0.-4,0.-3,2.62,6.51,93314.32,689.36
47612,2,0.25,2.60,9.3,0.-21,0.0,0.3,2.68,6.51,93311.6,689.46
47646,2,2.45,1.77,10.85,0.-20,0.-14,0.9,2.68,6.50,93306.72,689.27
47680,2,1.72,1.83,9.48,0.-10,0.-5,0.2,2.68,6.50,93306.71,689.65
47714,2,1.72,2.77,9.83,0.-5,0.-11,0.-3,2.68,6.50,93306.71,689.75
47748,2,1.89,2.85,9.98,0.0,0.-15,0.-2,2.68,6.50,93314.31,689.46
47783,2,2.11,1.74,9.51,0.10,0.-12,0.-2,2.62,6.49,93312.14,689.85
47817,2,1.60,1.25,9.18,0.12,0.-6,0.-5,2.62,6.49,93307.80,689.36
47851,2,1.53,2.26,9.51,0.16,0.-11,0.-3,2.68,6.49,93314.31,689.46
47885,2,2.24,2.57,9.70,0.20,0.2,0.-4,2.68,6.49,93309.96,689.8
47919,2,1.47,2.47,9.45,0.19,0.-1,0.-9,2.62,6.48,93313.22,688.98
47953,2,1.56,2.1,9.59,0.18,0.-9,0.-8,2.68,6.49,93311.5,689.46
47987,2,1.42,1.92,9.51,0.18,0.1,0.-5,2.62,6.48,93319.73,689.46
48021,2,1.35,1.98,9.26,0.16,0.-7,0.-1,2.68,6.49,93315.39,689.46
48056,2,2.1,2.0,8.70,0.12,0.-11,0.0,2.68,6.49,93317.56,689.56
48090,2,1.80,2.58,8.92,0.6,0.3,0.0,2.62,6.49,93309.97,689.94
48124,2,0.89,2.91,9.45,0.0,0.9,0.3,2.62,6.49,93319.73,689.27
48158,2,1.12,2.49,8.93,0.-7,0.0,0.13,2.62,6.50,93308.89,690.52
48192,2,1.71,2.67,9.21,0.-15,0.0,0.16,2.62,6.49,93311.6,689.85
48226,2,1.41,2.30,9.87,0.-20,0.-3,0.18,2.62,6.50,93312.14,689.46
48260,2,1.71,1.94,10.16,0.-19,0.-5,0.20,2.62,6.50,93321.89,690.4
48294,2,2.9,1.77,8.76,0.-17,0.-5,0.20,2.62,6.50,93313.22,689.8
48329,2,2.39,1.5,9.82,0.-16,0.-14,0.13,2.56,6.50,93309.97,689.94
48364,2,2.8,1.27,9.92,0.-13,0.-16,0.8,2.62,6.50,93308.89,689.36
48398,2,1.20,2.1,9.98,0.-3,0.-6,0.7,2.68,6.50,93313.23,689.75
48432,2,1.45,2.18,9.48,0.3,0.-2,0.10,2.62,6.51,93311.6,689.46
48466,2,1.48,2.19,10.3,0.7,0.2,0.8,2.62,6.51,93311.6,689.36
48500,2,2.22,1.79,10.34,0.12,0.-9,0.6,2.62,6.51,93312.14,689.36
48534,2,2.8,2.72,9.66,0.20,0.-7,0.0,2.68,6.50,93311.6,689.17
48568,2,2.30,1.97,8.96,0.22,0.-9,0.-4,2.68,6.50,93314.31,689.94
48603,2,0.77,1.37,8.83,0.21,0.-6,0.-11,2.62,6.51,93308.89,689.46
48637,2,0.91,2.29,9.28,0.18,0.-7,0.-5,2.62,6.51,93313.23,689.46
48671,2,1.87,2.37,9.55,0.15,0.-2,0.-3,2.68,6.50,93307.81,689.85
48705,2,1.78,2.0,9.60,0.14,0.-9,0.-9,2.68,6.51,93309.98,689.36
48739,2,1.24,2.12,9.78,0.17,0.-5,0.-10,2.68,6.51,93313.23,689.17
48773,2,1.3,2.3,9.54,0.21,0.-10,0.-4,2.62,6.51,93313.23,689.46
48807,2,2.23,1.41,10.18,0.22,0.-7,0.-2,2.62,6.51,93314.32,690.33
48841,2,1.84,2.59,8.93,0.25,0.-9,0.-7,2.62,6.51,93317.57,689.75
48876,2,2.79,2.14,9.56,0.21,0.-7,0.-9,2.62,6.51,93316.48,689.36
48910,2,0.90,2.25,8.94,0.14,0.-8,0.-13,2.62,6.51,93315.39,689.85
48944,2,0.45,2.85,9.17,0.10,0.-8,0.-8,2.56,6.51,93311.6,689.85
48978,2,1.37,3.0,9.41,0.8,0.-2,0.-2,2.62,6.51,93317.57,689.56
49012,2,1.18,2.70,8.97,0.2,0.-2,0.2,2.68,6.51,93311.6,689.56
49046,2,0.71,2.52,9.5,0.-3,0.-8,0.6,2.62,6.51,93313.23,689.36
49080,2,0.64,2.28,9.42,0.-9,0.8,0.19,2.62,6.51,93313.22,689.46
49114,2,0.78,2.24,9.66,0.-11,0.16,0.27,2.62,6.51,93314.32,689.36
49149,2,1.99,2.0,10.3,0.-13,0.-2,0.31,2.62,6.50,93311.6,689.56
49183,2,1.94,1.47,10.9,0.-10,0.-2,0.28,2.68,6.50,93308.89,689.27
49217,2,1.25,1.82,9.8,0.-6,0.6,0.22,2.62,6.50,93317.57,689.85
49251,2,0.71,2.65,8.56,0.-11,0.0,0.21,2.56,6.51,93312.14,690.14
49285,2,1.74,2.93,8.77,0.-19,0.8,0.21,2.62,6.51,93311.7,689.75
49319,2,2.12,1.4,10.16,0.-23,0.18,0.10,2.62,6.50,93309.97,689.94
49353,2,0.56,0.38,9.67,0.-21,0.21,0.1,2.68,6.52,93312.14,689.65
49388,2,1.73,1.32,9.64,0.-18,0.9,0.-3,2.68,6.51,93309.98,689.46
49423,2,1.32,1.36,9.79,0.-13,0.19,0.-11,2.56,6.51,93306.72,689.46
49457,2,1.9,2.41,9.89,0.-9,0.7,0.-16,2.62,6.51,93304.56,689.56
49491,2,0.25,1.94,10.42,0.-5,0.-5,0.-18,2.68,6.52,93311.6,689.46
49525,2,0.81,1.79,10.41,0.1,0.-11,0.-16,2.62,6.50,93309.97,689.46
49559,2,0.51,1.85,10.30,0.12,0.-4,0.-14,2.68,6.51,93313.23,689.17
49593,2,0.11,1.54,10.40,0.20,0.-8,0.-8,2.62,6.51,93306.72,689.46
49627,2,1.16,1.48,9.68,0.23,0.-11,0.-4,2.62,6.51,93311.6,689.27
49661,2,1.23,1.93,9.61,0.23,0.-13,0.-5,2.68,6.50,93316.48,689.36
49696,2,1.11,1.35,9.48,0.17,0.-15,0.-10,2.68,6.50,93313.23,689.36
49730,2,0.73,1.77,9.19,0.13,0.-7,0.-12,2.68,6.52,93314.31,689.17
49764,2,0.48,1.58,9.43,0.5,0.-15,0.-9,2.62,6.51,93315.39,689.36
49798,2,1.1,2.11,9.67,0.1,0.-14,0.-9,2.68,6.50,93312.14,689.36
49832,2,1.17,2.48,10.20,0.1,0.-8,0.-10,2.62,6.51,93313.23,689.75
49866,2,1.20,2.28,10.17,0.1,0.-21,0.-12,2.68,6.51,93315.39,689.46
49900,2,0.51,2.5,9.74,0.4,0.-19,0.-11,2.68,6.51,93311.6,688.98
49934,2,0.6,1.55,9.41,0.3,0.-24,0.0,2.68,6.52,93313.23,689.56
49969,2,0.72,1.74,9.61,0.0,0.-34,0.7,2.62,6.51,93308.89,689.94
50003,2,2.20,3.12,9.95,0.0,0.-29,0.5,2.62,6.51,93315.39,689.17
50037,2,3.5,2.56,11.21,0.0,0.-12,0.-5,2.62,6.52,93322.99,689.46
50071,2,2.0,0.17,11.17,0.23,0.-9,0.-23,2.62,6.51,93307.81,689.27
50115,2,0.49,0.12,9.30,0.42,0.-15,0.-30,2.62,6.51,93311.6,688.88
50149,2,0.-17,2.21,8.41,0.46,0.-13,0.-27,2.62,6.50,93318.64,689.36
50183,2,0.30,2.78,8.35,0.38,0.-24,0.-21,2.68,6.51,93312.14,689.27
50217,2,1.49,3.61,8.84,0.28,0.-21,0.-23,2.62,6.51,93311.6,689.65
50253,2,0.63,3.47,8.73,0.14,0.-21,0.-25,2.68,6.51,93311.6,689.75
50287,2,0.78,3.20,9.11,0.5,0.-13,0.-17,2.68,6.51,93312.14,689.75
50321,2,1.59,1.73,10.13,0.-1,0.-5,0.-6,2.62,6.51,93314.32,689.17
50355,2,1.79,1.92,10.3,0.-2,0.-11,0.-6,2.68,6.51,93318.65,689.65
50390,2,1.16,2.67,9.64,0.-4,0.-16,0.-1,2.68,6.52,93314.32,689.85
50424,2,1.50,1.89,9.24,0.-5,0.-18,0.2,2.68,6.51,93309.98,689.17
50458,2,1.52,2.46,9.36,0.-2,0.-9,0.3,2.68,6.51,93313.22,689.56
50492,2,0.76,2.76,8.93,0.-3,0.1,0.5,2.68,6.51,93313.23,689.17
50527,2,1.58,1.74,8.92,0.-7,0.-8,0.9,2.68,6.50,93316.48,689.7
50561,2,1.87,2.26,10.52,0.-12,0.0,0.1,2.68,6.52,93315.39,689.7
50595,2,1.43,2.18,9.80,0.-11,0.-7,0.-3,2.75,6.51,93312.14,689.46
50629,2,2.45,2.20,10.6,0.-6,0.-8,0.-11,2.75,6.51,93313.23,689.56
50663,2,1.16,2.36,9.18,0.0,0.4,0.-19,2.75,6.51,93306.72,689.65
50697,2,0.85,2.47,9.56,0.0,0.-8,0.-18,2.68,6.51,93311.6,688.98
50731,2,0.61,2.0,9.67,0.0,0.-4,0.-16,2.68,6.50,93312.14,689.36
50765,2,1.21,2.20,10.48,0.2,0.-20,0.-13,2.68,6.50,93313.22,689.36
50800,2,1.5,2.38,11.8,0.8,0.-40,0.-11,2.68,6.50,93309.97,689.27
50834,2,2.29,2.39,11.0,0.18,0.-61,0.-6,2.68,6.51,93313.23,689.85
50868,2,1.73,2.74,11.70,0.33,0.-49,0.-9,2.62,6.51,93317.56,689.46
50902,2,1.25,2.50,10.33,0.51,0.-54,0.-3,2.75,6.50,93318.64,688.79
50936,2,1.76,2.11,10.68,0.72,0.-43,0.7,2.68,6.50,93313.22,689.46
50970,2,1.63,1.52,10.2,0.88,0.-26,0.14,2.75,6.50,93311.6,688.98
51004,2,2.40,2.10,7.35,0.99,0.-39,0.19,2.62,6.50,93316.48,689.27
51038,2,3.25,4.15,7.25,0.90,0.-15,0.11,2.68,6.50,93315.39,689.46
51073,2,2.95,2.64,6.3,0.70,0.-15,0.-4,2.75,6.50,93315.39,688.88
51107,2,3.26,2.12,10.21,0.54,0.-22,0.-16,2.75,6.49,93319.73,688.98
51141,2,3.57,4.52,8.72,0.52,0.-28,0.-39,2.68,6.50,93312.14,689.27
51175,2,1.83,4.70,8.33,0.41,0.-71,0.-48,2.68,6.49,93316.47,689.46
51209,2,2.2,4.6,8.2,0.30,0.-67,0.-49,2.68,6.49,93314.31,689.75
51243,2,0.60,4.18,7.44,0.14,0.-39,0.-44,2.68,6.50,93314.31,689.65
51277,2,2.19,4.92,6.94,0.5,0.-39,0.-36,2.68,6.49,93308.89,689.56
51311,2,2.12,5.63,10.4,0.-5,0.-20,0.-34,2.68,6.49,93315.39,688.79
51346,2,2.29,5.7,10.3,0.4,0.-45,0.-24,2.68,6.48,93313.22,689.65
51380,2,1.64,3.93,6.5,0.0,0.-39,0.-8,2.75,6.49,93316.47,689.65
51415,2,1.25,3.54,7.92,0.-9,0.-16,0.3,2.68,6.49,93311.5,689.56
51449,2,0.90,3.79,9.67,0.-10,0.2,0.17,2.68,6.49,93312.14,689.65
51483,2,1.69,4.25,8.86,0.-3,0.18,0.35,2.68,6.49,93313.22,689.36
51517,2,1.75,4.88,6.29,0.-7,0.56,0.43,2.75,6.49,93309.97,689.46
51551,2,2.43,5.33,8.1,0.-24,0.62,0.46,2.68,6.48,93311.5,688.88
51585,2,4.4,5.19,10.46,0.-31,0.54,0.39,2.68,6.49,93315.39,689.56
51620,2,2.48,3.5,8.84,0.-28,0.33,0.24,2.75,6.49,93314.31,689.56
51654,2,1.1,2.37,8.48,0.-32,0.24,0.24,2.75,6.49,93315.39,689.36
51688,2,1.60,3.2,8.88,0.-37,0.41,0.32,2.75,6.49,93313.22,689.36
51722,2,1.84,3.70,8.83,0.-43,0.53,0.31,2.68,6.49,93315.39,689.75
51756,2,2.18,3.71,9.84,0.-48,0.30,0.28,2.68,6.48,93311.5,689.65
51790,2,2.83,3.14,9.32,0.-48,0.36,0.20,2.62,6.48,93308.89,689.36
51824,2,1.96,2.61,10.35,0.-49,0.39,0.10,2.62,6.48,93320.81,689.8
51858,2,0.78,2.12,10.67,0.-44,0.15,0.10,2.68,6.49,93317.56,689.36
51893,2,0.76,2.2,8.91,0.-44,0.21,0.13,2.62,6.49,93311.5,689.17
51927,2,1.2,1.68,9.73,0.-51,0.12,0.19,2.62,6.48,93313.22,689.46
51961,2,2.36,1.62,9.53,0.-54,0.16,0.17,2.62,6.47,93317.56,689.8
51995,2,2.19,1.87,11.27,0.-49,0.21,0.4,2.62,6.47,93309.96,688.88
52029,2,0.22,1.59,11.44,0.-35,0.-2,0.3,2.62,6.48,93318.64,689.56
52063,2,0.66,1.25,9.59,0.-28,0.-1,0.9,2.56,6.47,93314.30,688.98
52097,2,1.21,1.41,9.83,0.-24,0.24,0.12,2.56,6.47,93316.47,689.17
52131,2,0.98,1.62,9.55,0.-22,0.16,0.9,2.62,6.47,93316.46,689.94
52166,2,0.32,1.47,9.0,0.-24,0.12,0.8,2.62,6.46,93309.96,688.79
52200,2,0.27,1.49,9.38,0.-26,0.23,0.11,2.56,6.46,93308.88,689.46
52234,2,0.4,0.95,8.66,0.-32,0.31,0.14,2.62,6.47,93314.29,689.27
52268,2,0.11,0.78,9.5,0.-40,0.33,0.16,2.62,6.47,93307.79,690.4
52302,2,0.17,1.7,9.95,0.-47,0.55,0.14,2.62,6.46,93311.4,689.27
52336,2,0.-31,0.90,10.33,0.-49,0.38,0.13,2.62,6.46,93312.13,690.14
52370,2,0.11,0.64,10.21,0.-50,0.17,0.11,2.56,6.46,93309.96,689.46
52404,2,0.71,0.-7,9.57,0.-47,0.17,0.6,2.56,6.46,93312.13,688.98
52440,2,0.23,0.-60,9.96,0.-42,0.39,0.3,2.62,6.46,93316.46,689.56
52474,2,0.-48,0.-59,10.77,0.-32,0.52,0.1,2.62,6.46,93317.54,689.46
52508,2,0.-85,0.-17,11.97,0.-21,0.18,0.1,2.62,6.44,93312.12,689.75
52542,2,0.-11,0.-19,11.36,0.-3,0.-25,0.1,2.62,6.45,93309.96,689.75
52576,2,0.49,0.-14,9.58,0.7,0.-17,0.0,2.62,6.45,93314.28,689.46
52610,2,0.47,0.8,8.48,0.11,0.1,0.-7,2.50,6.44,93314.28,689.37
52644,2,0.-58,0.-17,8.43,0.9,0.22,0.-12,2.62,6.44,93315.37,689.27
52679,2,0.-87,0.-18,10.68,0.8,0.-5,0.-13,2.62,6.44,93313.21,689.85
52713,2,0.-47,0.-11,9.97,0.12,0.-18,0.-14,2.56,6.44,93306.70,689.66
52747,2,0.-66,0.-11,8.61,0.11,0.-12,0.-15,2.56,6.43,93308.86,689.27
52781,2,0.-44,0.-13,9.27,0.5,0.11,0.-16,2.56,6.43,93314.28,690.4
52815,2,0.-98,0.-10,11.8,0.5,0.12,0.-16,2.56,6.44,93308.86,689.75
52849,2,0.-85,0.-28,11.82,0.14,0.-24,0.-13,2.62,6.43,93311.3,688.98
52883,2,0.-33,0.-34,11.6,0.22,0.-35,0.-12,2.62,6.43,93315.36,689.37
52917,2,0.-6,0.-22,10.67,0.31,0.-39,0.-14,2.56,6.43,93314.28,689.75
52952,2,0.-27,0.11,10.62,0.36,0.-41,0.-15,2.62,6.43,93317.53,689.37
52986,2,0.-2,0.49,9.71,0.40,0.-42,0.-18,2.56,6.43,93313.20,689.66
53020,2,0.-36,0.44,9.67,0.39,0.-64,0.-19,2.56,6.44,93321.87,689.75
53054,2,0.-35,0.31,9.26,0.28,0.-54,0.-14,2.56,6.43,93317.53,689.75
53088,2,0.33,0.44,7.69,0.9,0.-19,0.-11,2.62,6.43,93312.11,689.85
53122,2,0.15,0.65,8.28,0.-5,0.-5,0.-13,2.62,6.44,93308.86,689.17
53156,2,0.10,0.56,8.43,0.-26,0.-21,0.-15,2.62,6.43,93301.28,690.4
53190,2,0.6,0.57,8.70,0.-42,0.-11,0.-17,2.62,6.43,93313.20,689.37
53225,2,0.37,0.7,8.81,0.-51,0.0,0.-15,2.56,6.43,93314.28,689.37
53259,2,0.53,0.-24,9.52,0.-52,0.12,0.-15,2.56,6.43,93314.28,689.95
53293,2,0.-16,0.-24,10.55,0.-46,0.5,0.-15,2.56,6.43,93314.28,689.27
53327,2,0.-29,0.13,11.97,0.-29,0.3,0.-14,2.62,6.43,93312.11,690.24
53361,2,0.-44,0.-21,11.61,0.-14,0.-36,0.-11,2.56,6.43,93317.53,689.66
53395,2,0.20,0.-60,9.71,0.3,0.-55,0.-7,2.56,6.43,93314.28,689.46
53429,2,0.68,0.-48,9.42,0.11,0.-17,0.-6,2.56,6.43,93302.35,690.4
53465,2,0.37,0.-13,9.84,0.22,0.-6,0.-6,2.56,6.43,93314.28,689.75
53499,2,0.-9,0.-18,10.1,0.30,0.-15,0.-5,2.56,6.43,93309.95,689.27
53533,2,0.21,0.13,10.41,0.41,0.1,0.-3,2.56,6.43,93317.53,689.75
53567,2,0.-84,0.40,11.60,0.50,0.-21,0.-2,2.56,6.43,93315.37,689.8
53601,2,0.-49,0.34,11.5,0.57,0.-69,0.3,2.62,6.44,93314.29,689.46
53635,2,0.-29,0.56,11.59,0.65,-1.-5,0.6,2.56,6.44,93309.95,689.37
53669,2,0.45,0.43,10.34,0.70,-1.-45,0.7,2.56,6.44,93312.11,689.46
53703,2,2.3,0.62,9.1,0.70,-1.-12,0.6,2.50,6.44,93313.20,689.27
53738,2,2.34,0.75,8.71,0.66,0.-66,0.3,2.56,6.43,93311.3,689.56
53772,2,2.10,1.23,8.76,0.58,0.-45,0.0,2.56,6.44,93315.37,689.46
53806,2,2.3,1.55,8.44,0.49,0.-41,0.0,2.56,6.44,93314.28,689.46
53840,2,2.45,1.78,7.16,0.32,0.-34,0.0,2.56,6.43,93311.3,689.56
53874,2,2.2,2.10,7.81,0.16,0.1,0.0,2.56,6.45,93313.20,689.75
53908,2,1.37,1.42,9.12,0.3,0.-12,0.3,2.62,6.43,93309.95,689.8
53942,2,1.78,1.66,9.47,0.-8,0.8,0.9,2.62,6.45,93307.78,689.95
53976,2,1.93,1.68,10.7,0.-16,0.10,0.10,2.62,6.44,93307.78,689.85
54011,2,2.15,1.5,9.53,0.-22,0.-18,0.11,2.56,6.43,93314.28,689.66
54045,2,2.52,1.6,9.88,0.-27,0.-3,0.12,2.56,6.44,93314.28,689.75
54079,2,1.92,0.89,10.81,0.-26,0.-3,0.9,2.56,6.44,93313.20,690.4
54113,2,1.55,0.53,10.67,0.-22,0.-16,0.11,2.50,6.44,93313.20,689.75
54147,2,2.42,0.58,9.60,0.-16,0.-12,0.12,2.56,6.43,93307.78,689.75
54181,2,1.90,0.68,9.69,0.-13,0.13,0.10,2.56,6.43,93312.12,689.85
54215,2,1.61,0.48,9.73,0.-11,0.3,0.10,2.56,6.43,93309.95,689.56
54249,2,1.45,0.75,9.78,0.-6,0.20,0.13,2.56,6.43,93307.78,689.17
54284,2,1.34,1.7,10.46,0.-2,0.7,0.13,2.56,6.43,93314.28,689.56
54318,2,1.75,1.3,8.76,0.1,0.12,0.14,2.56,6.43,93311.3,689.46
54352,2,1.38,0.94,8.99,0.0,0.38,0.14,2.56,6.42,93311.3,689.85
54386,2,0.76,0.60,9.21,0.-1,0.31,0.15,2.56,6.43,93314.28,689.37
54420,2,1.19,0.75,9.84,0.0,0.38,0.19,2.56,6.42,93313.19,689.75
54454,2,1.43,0.50,9.84,0.5,0.28,0.17,2.50,6.43,93316.44,689.46
54489,2,1.33,0.64,9.32,0.9,0.42,0.15,2.62,6.43,93316.45,688.69
54523,2,1.16,0.33,10.27,0.13,0.42,0.11,2.56,6.42,93309.94,689.37
54558,2,0.76,0.4,10.52,0.22,0.45,0.9,2.56,6.42,93315.36,689.56
54592,2,0.75,0.15,10.33,0.29,0.36,0.9,2.56,6.42,93307.78,689.37
54626,2,0.69,0.31,9.9,0.32,0.23,0.6,2.62,6.42,93312.11,689.8
54660,2,0.75,1.12,9.10,0.31,0.34,0.4,2.56,6.42,93313.20,689.66
54694,2,0.20,1.58,9.98,0.29,0.37,0.4,2.50,6.43,93316.45,689.95
54728,2,0.8,1.10,10.32,0.31,0.46,0.6,2.50,6.43,93311.3,689.37
54762,2,1.55,0.-23,9.76,0.27,0.23,0.0,2.56,6.43,93313.20,689.75
54796,2,0.59,0.97,9.45,0.20,0.1,0.-10,2.50,6.43,93313.19,690.24
54830,2,0.-97,1.52,10.60,0.14,0.5,0.-10,2.50,6.42,93314.28,690.14
54865,2,0.-42,1.29,9.23,0.8,0.7,0.0,2.56,6.43,93308.86,689.27
54899,2,0.-19,1.42,9.80,0.0,0.10,0.0,2.56,6.42,93314.28,690.33
54933,2,0.-38,1.8,9.38,0.-8,0.-1,0.1,2.56,6.43,93311.3,689.46
54967,2,0.8,0.78,9.77,0.-11,0.-4,0.2,2.50,6.43,93306.69,689.37
55001,2,0.10,0.66,8.64,0.-19,0.-4,0.1,2.50,6.42,93311.3,689.17
55035,2,0.-38,1.2,9.39,0.-25,0.16,0.0,2.50,6.42,93309.95,689.46
55069,2,0.-38,0.73,9.98,0.-29,0.-9,0.-1,2.50,6.42,93312.11,689.75
55103,2,0.-15,1.33,10.74,0.-28,0.-6,0.-4,2.56,6.43,93311.3,689.75
55138,2,0.-18,1.14,10.49,0.-21,0.0,0.-8,2.43,6.42,93316.45,689.37
55172,2,0.27,1.21,9.99,0.-18,0.-9,0.-10,2.56,6.42,93308.86,689.37
55206,2,0.0,0.27,9.90,0.-13,0.-15,0.-17,2.56,6.42,93306.69,689.95
55240,2,0.-76,0.34,9.44,0.-8,0.0,0.-17,2.50,6.42,93309.94,688.89
55274,2,-1.-40,0.-44,8.92,0.-7,0.-11,0.-13,2.56,6.42,93311.3,689.66
55308,2,-1.-59,0.6,9.82,0.-5,0.7,0.-2,2.50,6.43,93309.95,689.75
55342,2,0.-63,0.24,10.20,0.-2,0.10,0.3,2.56,6.43,93312.11,689.75
55377,2,0.-7,0.74,10.44,0.2,0.-4,0.2,2.56,6.43,93315.36,689.37
55411,2,0.16,0.69,10.23,0.7,0.4,0.-1,2.56,6.42,93313.19,689.17
55445,2,0.-29,0.51,9.87,0.10,0.5,0.-10,2.56,6.42,93313.20,688.60
55479,2,0.-98,0.65,9.76,0.14,0.9,0.-14,2.62,6.43,93315.36,689.66
55514,2,-1.-42,0.34,9.47,0.14,0.11,0.-13,2.56,6.43,93314.28,689.95
55548,2,-1.-24,0.46,9.71,0.14,0.9,0.-9,2.56,6.42,93315.36,688.79
55582,2,-1.-14,0.37,9.96,0.13,0.-1,0.-5,2.62,6.42,93303.43,689.56
55616,2,0.-92,0.21,10.7,0.18,0.6,0.-2,2.56,6.42,93319.70,689.56
55651,2,0.-58,0.74,9.81,0.18,0.10,0.0,2.56,6.43,93315.36,689.66
55685,2,-1.-11,0.80,9.62,0.16,0.5,0.-5,2.56,6.42,93307.78,689.85
55719,2,-1.-21,0.97,9.58,0.13,0.13,0.-6,2.56,6.42,93312.11,689.46
55753,2,0.-57,1.3,9.66,0.8,0.5,0.-12,2.62,6.43,93315.36,689.37
55787,2,-1.-57,0.44,9.63,0.6,0.-3,0.-14,2.56,6.43,93316.45,689.75
55821,2,-1.-35,0.44,9.76,0.5,0.13,0.-13,2.50,6.43,93313.20,689.56
55855,2,-1.-37,0.43,9.63,0.2,0.2,0.-10,2.56,6.43,93317.53,689.85
55889,2,-1.-80,0.51,10.12,0.3,0.4,0.-7,2.62,6.43,93306.70,689.37
55924,2,-1.-41,1.0,9.60,0.4,0.-6,0.-4,2.56,6.43,93312.11,689.85
55958,2,-1.-15,1.6,9.53,0.2,0.-1,0.-4,2.56,6.42,93318.62,689.46
55992,2,-1.-43,1.4,9.98,0.3,0.3,0.-7,2.56,6.42,93313.20,689.66
56026,2,-1.-41,1.2,9.85,0.2,0.-9,0.-8,2.56,6.43,93314.28,689.56
56060,2,-1.-36,0.59,9.51,0.3,0.-1,0.-10,2.50,6.44,93306.69,689.46
56094,2,-1.-15,0.70,9.32,0.3,0.0,0.-12,2.56,6.43,93308.85,689.37
56128,2,-1.-35,0.44,9.98,0.6,0.-3,0.-15,2.62,6.43,93315.36,689.37
56162,2,-1.-78,0.48,10.9,0.9,0.-1,0.-14,2.56,6.43,93309.94,689.17
56197,2,-2.0,0.69,9.44,0.10,0.0,0.-12,2.56,6.43,93316.45,690.4
56231,2,-1.-88,0.78,7.48,0.6,0.4,0.-9,2.56,6.43,93315.36,689.56
56265,2,-1.-74,1.27,9.6,0.1,0.27,0.-6,2.56,6.42,93311.3,689.66
56299,2,-1.-66,0.97,11.14,0.3,0.16,0.-5,2.62,6.42,93313.20,689.37
56333,2,-2.-48,0.28,10.97,0.10,0.1,0.-5,2.62,6.43,93313.20,689.37
56367,2,-1.-54,0.19,10.5,0.13,0.-8,0.-2,2.56,6.43,93314.28,689.56
56401,2,-1.-24,0.26,9.96,0.9,0.-32,0.-4,2.56,6.42,93314.28,689.66
56435,2,-1.-97,0.32,9.92,0.3,0.-50,0.-8,2.56,6.42,93318.61,689.8
56470,2,-1.-90,0.63,9.18,0.-11,0.-50,0.-11,2.56,6.43,93307.78,689.66
56504,2,-1.-79,0.49,9.25,0.-26,0.-56,0.-11,2.56,6.43,93308.85,689.27
56539,2,-1.-33,0.47,9.82,0.-38,0.-45,0.-11,2.62,6.41,93316.45,689.17
56573,2,0.-97,0.20,10.6,0.-41,0.-52,0.-13,2.56,6.42,93320.78,689.27
56607,2,0.-59,0.-14,9.42,0.-43,0.-50,0.-15,2.62,6.42,93314.28,689.46
56641,2,0.-82,0.-16,9.74,0.-45,0.-69,0.-14,2.56,6.43,93313.20,689.46
56675,2,-1.-43,0.6,10.13,0.-43,0.-64,0.-9,2.50,6.42,93311.3,689.56
56710,2,-1.-6,0.26,10.38,0.-36,0.-47,0.-1,2.56,6.42,93317.53,689.85
56744,2,-1.-15,0.-56,9.94,0.-30,0.-48,0.0,2.56,6.41,93316.45,688.98
56778,2,0.-7,0.-38,9.31,0.-24,0.-43,0.2,2.56,6.42,93315.36,689.8
56812,2,0.72,0.-3,9.67,0.-20,0.-25,0.-1,2.56,6.42,93311.3,689.46
56846,2,1.11,0.-16,10.79,0.-8,0.-27,0.-11,2.56,6.43,93309.94,689.37
56880,2,0.37,0.22,10.65,0.3,0.-50,0.-17,2.56,6.43,93306.69,689.56
56914,2,0.-15,0.-67,9.87,0.16,0.-32,0.-18,2.50,6.42,93314.28,689.56
56948,2,0.24,0.-79,9.56,0.18,0.-27,0.-13,2.56,6.42,93307.77,689.46
56983,2,0.70,0.-49,10.6,0.30,0.-28,0.-5,2.62,6.43,93312.10,689.56
57017,2,0.53,0.-66,10.48,0.43,0.-53,0.-3,2.56,6.41,93306.69,688.98
57051,2,0.-23,0.-66,10.41,0.56,0.-47,0.5,2.62,6.42,93313.19,689.46
57085,2,0.55,0.-18,11.54,0.75,0.-33,0.14,2.56,6.42,93309.94,689.37
57119,2,0.80,0.-15,11.55,0.94,0.-61,0.17,2.62,6.42,93312.11,690.4
57153,2,0.65,0.0,10.72,1.16,0.-34,0.21,2.62,6.42,93308.85,689.75
57187,2,1.30,0.56,11.27,1.32,0.-32,0.21,2.56,6.42,93305.60,689.37
57221,2,1.44,1.0,10.26,1.49,0.-51,0.19,2.56,6.41,93311.2,689.95
57256,2,0.54,1.0,10.52,1.59,0.-42,0.18,2.56,6.42,93315.35,689.75
57290,2,2.30,2.70,10.3,1.69,0.-22,0.18,2.50,6.41,93305.60,689.56
57324,2,1.52,2.47,9.20,1.67,0.-53,0.13,2.56,6.40,93309.93,689.37
57358,2,1.71,3.32,8.39,1.62,0.-45,0.11,2.56,6.40,93309.93,689.37
57392,2,2.47,4.8,7.81,1.48,0.-25,0.8,2.62,6.40,93315.35,690.14
57426,2,2.16,3.99,8.47,1.35,0.-36,0.3,2.50,6.41,93309.93,689.37
57460,2,1.82,4.76,8.23,1.18,0.-35,0.0,2.56,6.40,93311.2,689.46
57494,2,0.99,4.41,7.57,0.98,0.-51,0.-1,2.56,6.40,93309.93,689.95
57529,2,1.16,4.13,6.36,0.69,0.-35,0.5,2.56,6.40,93312.10,689.56
57564,2,1.93,4.40,6.46,0.49,0.-15,0.8,2.56,6.40,93306.68,688.89
57598,2,2.32,5.21,7.56,0.0,0.-26,0.9,2.56,6.40,93315.35,689.37
57632,2,2.39,5.61,8.37,0.18,0.-33,0.4,2.56,6.39,93308.85,689.37
57666,2,3.30,5.77,8.38,0.13,0.-37,0.-3,2.56,6.40,93315.35,689.27
57700,2,3.49,5.44,8.53,0.15,0.-54,0.-19,2.50,6.40,93309.93,689.37
57734,2,3.11,5.78,8.40,0.18,0.-47,0.-29,2.50,6.39,93308.85,689.46
57768,2,2.83,6.12,8.86,0.25,0.-66,0.-39,2.56,6.39,93311.2,690.4
57803,2,2.9,5.87,8.30,0.32,0.-92,0.-43,2.62,6.39,93306.68,689.95
57837,2,2.32,5.97,8.74,0.41,0.-89,0.-46,2.62,6.40,93314.27,689.37
57871,2,2.39,5.92,8.15,0.50,-1.-13,0.-44,2.62,6.40,93313.18,690.14
57905,2,2.67,6.23,8.69,0.55,-1.-49,0.-42,2.50,6.40,93315.35,689.66
57939,2,2.62,6.47,7.61,0.63,-1.-75,0.-36,2.50,6.39,93312.10,689.18
57973,2,2.72,6.77,7.49,0.66,-1.-82,0.-35,2.62,6.39,93315.35,689.37
58007,2,3.20,6.66,6.21,0.68,-2.0,0.-34,2.56,6.39,93315.35,689.37
58041,2,3.54,6.55,5.66,0.66,-2.-8,0.-36,2.56,6.40,93309.93,689.66
58076,2,3.91,6.43,4.13,0.58,-1.-64,0.-35,2.56,6.39,93305.59,689.66
58110,2,4.22,6.90,4.0,0.48,-1.-59,0.-37,2.56,6.39,93308.85,689.66
58144,2,4.57,6.55,4.44,0.39,-1.-64,0.-42,2.50,6.39,93309.93,689.18
58178,2,5.21,6.95,4.37,0.35,-1.-57,0.-47,2.50,6.39,93315.35,690.4
58212,2,5.24,7.3,4.28,0.31,-1.-56,0.-53,2.56,6.39,93311.1,689.56
58246,2,4.42,7.56,3.75,0.26,-1.-28,0.-56,2.62,6.39,93306.67,689.56
58280,2,5.40,7.65,2.92,0.22,0.-91,0.-53,2.56,6.39,93315.35,689.85
58315,2,5.49,8.26,3.23,0.15,0.-96,0.-55,2.50,6.38,93308.84,689.85
58349,2,4.87,8.64,3.46,0.11,0.-81,0.-53,2.56,6.38,93308.84,690.24
58383,2,4.96,8.26,2.70,0.8,0.-64,0.-46,2.50,6.38,93308.85,689.56
58417,2,5.4,7.96,3.20,0.2,0.-87,0.-41,2.56,6.38,93303.42,690.72
58451,2,4.78,8.20,2.64,0.0,0.-87,0.-36,2.56,6.37,93309.92,689.37
58485,2,5.71,8.24,2.44,0.-3,0.-48,0.-35,2.56,6.38,93315.35,689.66
58519,2,5.90,8.31,2.19,0.-6,0.-52,0.-41,2.50,6.37,93311.1,689.95
58553,2,6.58,8.75,1.30,0.-11,0.-30,0.-54,2.56,6.38,93311.1,689.95
58589,2,5.52,7.41,1.84,0.-17,0.-8,0.-64,2.56,6.38,93303.42,689.95
58623,2,4.36,8.30,2.30,0.-23,0.-10,0.-73,2.56,6.38,93308.84,690.33
58657,2,4.23,8.3,2.0,0.-27,0.5,0.-73,2.56,6.38,93308.85,689.85
58691,2,3.20,8.42,2.69,0.-31,0.11,0.-69,2.56,6.39,93304.51,690.4
58725,2,2.67,8.41,2.10,0.-33,0.10,0.-60,2.56,6.38,93313.18,690.4
58759,2,2.23,8.63,2.62,0.-39,0.26,0.-44,2.50,6.40,93311.1,689.95
58793,2,1.41,8.62,3.22,0.-43,0.26,0.-29,2.50,6.38,93312.10,689.66
58827,2,0.87,8.37,3.1,0.-46,0.15,0.-11,2.50,6.39,93307.76,689.66
58862,2,1.44,8.59,3.79,0.-51,0.1,0.16,2.50,6.38,93309.93,689.85
58896,2,0.95,8.47,3.76,0.-53,0.-20,0.34,2.43,6.38,93314.27,690.24
58930,2,1.65,7.91,3.76,0.-57,0.-16,0.60,2.43,6.39,93311.1,689.75
58964,2,1.90,7.86,5.18,0.-59,0.-28,0.77,2.56,6.39,93307.76,689.46
58998,2,3.13,7.30,5.12,0.-53,0.-34,0.95,2.50,6.39,93308.85,690.14
59032,2,3.52,6.66,5.0,0.-46,0.-32,1.5,2.50,6.38,93308.85,690.4
59066,2,4.74,6.54,5.71,0.-37,0.-57,1.12,2.50,6.39,93311.1,690.4
59100,2,5.32,6.52,5.13,0.-28,0.-70,1.12,2.50,6.38,93307.75,689.37
59135,2,6.5,6.19,4.55,0.-22,0.-8,1.9,2.56,6.40,93307.76,690.14
59169,2,6.67,6.42,5.32,0.-22,0.5,1.3,2.56,6.38,93306.67,690.14
59203,2,6.99,6.44,5.55,0.-23,0.-2,0.96,2.56,6.38,93313.18,689.66
59237,2,7.27,5.67,4.96,0.-27,0.15,0.85,2.56,6.39,93304.51,689.37
59271,2,7.57,5.13,5.37,0.-35,0.13,0.78,2.56,6.38,93300.17,689.75
59305,2,6.71,4.24,5.3,0.-45,0.-3,0.68,2.56,6.38,93312.10,689.66
59339,2,6.74,4.29,4.48,0.-51,0.9,0.66,2.50,6.39,93313.18,689.46
59373,2,6.39,4.68,5.19,0.-58,0.12,0.62,2.50,6.38,93308.84,689.75
59408,2,5.77,4.69,5.15,0.-59,0.35,0.63,2.50,6.38,93307.76,689.95
59442,2,6.77,4.97,6.18,0.-60,0.72,0.64,2.56,6.37,93313.17,690.4
59476,2,6.16,4.57,6.27,0.-60,0.48,0.61,2.50,6.38,93309.92,689.37
59510,2,5.37,4.49,6.40,0.-61,0.45,0.61,2.62,6.38,93309.92,689.56
59544,2,5.35,4.0,6.56,0.-64,0.82,0.69,2.56,6.37,93313.17,689.66
59578,2,5.45,3.33,6.84,0.-67,0.92,0.75,2.56,6.38,93315.35,689.56
59613,2,6.32,2.53,7.13,0.-71,0.54,0.78,2.56,6.37,93312.9,689.75
59647,2,6.54,2.0,7.86,0.-70,0.36,0.77,2.56,6.37,93316.42,689.47
59682,2,6.27,1.73,8.16,0.-65,0.55,0.74,2.50,6.37,93309.92,689.75
59716,2,6.95,1.58,8.45,0.-62,0.58,0.71,2.50,6.38,93306.67,689.18
59750,2,7.78,1.56,8.24,0.-56,0.67,0.58,2.50,6.37,93313.17,689.27
59784,2,6.61,1.1,8.37,0.-52,0.70,0.47,2.50,6.37,93307.75,689.85
59818,2,6.31,1.9,8.40,0.-50,0.61,0.40,2.43,6.37,93316.42,689.85
59852,2,6.25,1.54,9.50,0.-48,0.18,0.31,2.43,6.37,93315.34,688.98
59886,2,6.46,1.30,9.16,0.-44,0.8,0.24,2.43,6.36,93312.9,689.47
59920,2,5.15,0.60,8.11,0.-39,0.14,0.19,2.50,6.37,93311.0,689.27
59955,2,4.82,0.14,8.15,0.-38,0.0,0.22,2.50,6.37,93315.33,688.89
59989,2,5.65,0.-9,8.82,0.-32,0.25,0.26,2.50,6.36,93316.42,689.85
60023,2,6.7,0.8,9.88,0.-26,0.34,0.23,2.50,6.36,93313.17,689.66
60057,2,5.20,0.-14,10.34,0.-18,0.0,0.20,2.50,6.36,93319.67,688.89
60091,2,5.89,0.-16,8.75,0.-10,0.-18,0.19,2.56,6.36,93317.50,689.47
60138,2,4.81,0.13,7.26,0.-13,0.25,0.7,2.50,6.35,93307.74,689.47
60172,2,4.45,0.25,7.9,0.-18,0.5,0.8,2.50,6.35,93320.75,689.66
60206,2,4.2,0.11,7.50,0.-25,0.23,0.14,2.43,6.35,93310.99,689.76
60244,2,4.29,0.-10,8.16,0.-30,0.40,0.20,2.50,6.34,93317.50,689.85
60278,2,4.84,0.-53,9.2,0.-34,0.32,0.24,2.43,6.35,93319.66,689.66
60312,2,4.72,0.-87,9.33,0.-34,0.21,0.24,2.43,6.35,93305.57,689.27
60346,2,4.77,0.-21,8.38,0.-35,0.20,0.22,2.43,6.35,93312.7,689.66
60380,2,4.25,0.-94,11.32,0.-33,0.15,0.20,2.43,6.34,93315.32,689.37
60414,2,5.33,-2.-20,12.24,0.-13,0.-22,0.16,2.43,6.34,93315.32,688.89
60448,2,6.34,-2.-79,12.44,0.7,0.-51,0.8,2.43,6.34,93318.57,689.37
60483,2,6.49,-2.-15,10.70,0.60,0.-48,0.-9,2.43,6.34,93310.99,689.66
60517,2,5.28,-1.-52,8.61,0.47,0.-73,0.-24,2.43,6.33,93309.90,690.14
60551,2,4.31,0.-70,6.59,0.49,0.-45,0.-32,2.43,6.34,93317.49,688.89
60585,2,4.51,0.1,6.43,0.39,0.-28,0.-40,2.50,6.34,93315.32,689.47
60620,2,4.30,0.8,6.96,0.31,0.-38,0.-44,2.43,6.34,93308.82,689.76
60654,2,3.31,0.70,6.42,0.20,0.29,0.-42,2.43,6.34,93313.15,689.66
60688,2,2.57,1.2,6.68,0.10,0.49,0.-31,2.43,6.33,93318.57,689.8
60722,2,2.34,0.74,7.9,0.0,0.37,0.-8,2.50,6.32,93314.24,689.56
60757,2,2.90,0.0,9.50,0.-6,0.69,0.11,2.43,6.31,93310.97,690.24
60791,2,2.38,0.-51,10.6,0.-5,0.27,0.39,2.43,6.32,93313.14,689.28
60825,2,3.23,0.-31,9.78,0.-1,0.23,0.59,2.43,6.32,93315.31,689.47
60859,2,4.82,-1.-8,10.26,0.0,0.18,0.71,2.43,6.31,93316.39,688.79
60893,2,5.51,0.-44,7.75,0.22,0.-12,0.71,2.37,6.31,93316.39,689.18
60927,2,2.52,0.61,7.33,0.17,0.-4,0.63,2.43,6.30,93313.14,689.66
60961,2,3.67,0.62,6.60,0.0,0.-2,0.70,2.50,6.30,93317.47,689.18
60995,2,3.91,-1.-5,8.57,0.-14,0.1,0.70,2.37,6.30,93314.22,689.57
61031,2,5.95,-4.-8,8.16,0.-18,0.25,0.57,2.43,6.30,93314.21,689.28
61065,2,4.24,-1.-70,7.9,0.-29,0.60,0.48,2.43,6.29,93308.80,688.99
61099,2,4.4,-4.-13,9.51,0.-50,0.23,0.41,2.43,6.30,93314.21,689.37
61133,2,4.81,-4.-3,10.93,0.-46,0.31,0.19,2.43,6.29,93317.46,689.47
61167,2,4.89,-2.-65,9.98,0.-37,0.34,0.-2,2.43,6.30,93319.64,689.37
61201,2,4.38,-1.-58,9.29,0.-28,0.9,0.-31,2.50,6.29,93318.55,688.89
61235,2,3.44,-1.-20,9.15,0.-21,0.21,0.-48,2.50,6.30,93306.63,688.89
61269,2,2.83,0.-40,9.65,0.-8,0.-5,0.-53,2.43,6.30,93310.96,689.66
61304,2,3.90,0.-56,9.94,0.4,0.8,0.-48,2.43,6.29,93310.96,688.89
61338,2,2.11,-1.-61,9.56,0.17,0.32,0.-44,2.43,6.30,93314.21,689.37
61372,2,1.80,-2.-89,11.10,0.24,0.-3,0.-35,2.43,6.29,93314.21,688.99
61406,2,2.71,-2.-39,10.28,0.39,0.-20,0.-22,2.43,6.29,93312.4,689.37
61440,2,2.43,-1.-84,9.96,0.48,0.-8,0.-13,2.37,6.29,93310.96,689.28
61474,2,2.50,-1.-69,9.24,0.55,0.-17,0.-5,2.37,6.29,93315.29,689.37
61508,2,2.73,0.-74,7.46,0.50,0.-2,0.-2,2.37,6.29,93306.62,689.28
61542,2,3.56,0.-54,8.3,0.36,0.-9,0.-5,2.43,6.29,93310.96,689.47
61577,2,4.40,0.-31,8.82,0.20,0.0,0.-17,2.43,6.29,93315.29,688.70
61611,2,2.82,0.-28,8.34,0.7,0.6,0.-24,2.43,6.29,93315.29,689.57
61646,2,3.49,-3.-49,7.71,0.6,0.-29,0.-10,2.37,6.29,93317.46,688.79
61680,2,1.79,0.-84,7.85,0.4,0.-17,0.-9,2.43,6.28,93315.29,689.47
61714,2,2.76,0.-86,9.29,0.-4,0.3,0.2,2.50,6.29,93307.71,689.28
61748,2,3.61,0.-30,8.5,0.-11,0.5,0.5,2.43,6.29,93308.78,689.28
61782,2,1.12,0.-54,11.90,0.-12,0.-12,0.0,2.37,6.29,93313.13,689.37
61817,2,3.66,0.-82,10.44,0.-7,0.-14,0.0,2.43,6.29,93315.30,689.8
61851,2,3.12,-2.-54,9.26,0.-3,0.-7,0.1,2.43,6.29,93316.38,689.95
61885,2,2.49,0.-89,8.56,0.-3,0.-1,0.5,2.43,6.29,93310.96,689.18
61919,2,3.78,0.-96,9.7,0.-5,0.7,0.3,2.37,6.29,93309.87,689.47
61953,2,3.13,-1.-36,10.22,0.0,0.-1,0.-4,2.43,6.28,93312.3,689.47
61987,2,2.84,-1.-24,9.81,0.6,0.-9,0.-8,2.37,6.29,93307.71,689.37
62021,2,3.38,-1.-23,9.67,0.11,0.-15,0.-9,2.37,6.29,93319.63,689.57
62055,2,2.32,-1.-2,9.46,0.14,0.-23,0.-10,2.37,6.29,93317.46,689.57
62090,2,2.61,0.-97,8.70,0.17,0.-13,0.-6,2.43,6.29,93307.71,689.57
62124,2,2.70,0.-81,9.5,0.15,0.-6,0.-2,2.37,6.29,93310.96,689.57
62158,2,3.47,-1.-5,10.52,0.14,0.-7,0.1,2.43,6.29,93317.46,689.47
62192,2,2.40,-1.-45,9.21,0.20,0.10,0.-2,2.43,6.29,93312.5,689.57
62226,2,2.58,-1.-13,8.72,0.14,0.-12,0.0,2.43,6.29,93312.5,689.57
62260,2,4.2,0.8,9.13,0.3,0.7,0.0,2.37,6.28,93312.5,689.37
62294,2,2.84,0.-57,9.26,0.-1,0.20,0.-6,2.37,6.29,93313.13,689.18
62328,2,1.46,-2.-1,9.8,0.-8,0.-7,0.-3,2.37,6.28,93319.63,689.76
62363,2,2.54,-1.-83,9.82,0.-16,0.-20,0.5,2.43,6.29,93308.80,689.37
62397,2,2.19,-1.-63,9.20,0.-17,0.2,0.15,2.37,6.29,93315.30,689.37
62431,2,3.26,0.-26,9.93,0.-25,0.-6,0.15,2.37,6.30,93320.72,687.73
62465,2,4.14,0.70,9.40,0.-19,0.12,0.5,2.43,6.29,93338.5,688.60
62499,2,3.8,-1.-44,8.40,0.-28,0.-33,0.14,2.43,6.29,93325.5,688.31
62533,2,1.92,-2.-30,10.74,0.-25,0.2,0.17,2.43,6.29,93318.55,689.28
62567,2,3.5,-2.-71,10.73,0.-1,0.0,0.24,2.43,6.29,93310.96,688.99
62601,2,3.37,-1.-82,9.62,0.12,0.6,0.20,2.37,6.29,93310.96,688.99
62636,2,2.62,-1.-28,8.54,0.17,0.3,0.11,2.37,6.29,93316.38,689.8
62671,2,2.90,-1.-75,9.13,0.16,0.14,0.2,2.43,6.29,93314.21,688.99
62705,2,1.96,-1.-87,9.59,0.17,0.17,0.-6,2.43,6.30,93314.21,689.28
62739,2,2.30,-1.-49,9.71,0.16,0.-9,0.-6,2.43,6.30,93316.39,689.66
62773,2,1.87,-1.-66,9.1,0.17,0.1,0.-4,2.43,6.29,93314.21,689.57
62807,2,2.4,-1.-43,8.97,0.7,0.9,0.2,2.37,6.29,93317.47,689.76
62841,2,3.81,0.-81,9.71,0.0,0.-23,0.0,2.43,6.30,93328.30,688.2
62875,2,4.80,0.71,9.12,0.0,0.13,0.-13,2.43,6.31,93417.16,679.6
62910,2,0.82,0.-59,7.47,0.-16,0.14,0.-18,2.43,6.30,93509.28,673.38
62944,2,2.26,-2.-84,11.27,0.-19,0.-11,0.-3,2.37,6.30,93469.17,678.87
62978,2,0.23,-3.-88,10.36,0.-6,0.-8,0.6,2.43,6.30,93329.39,688.60
63012,2,2.54,-1.-60,8.62,0.4,0.0,0.16,2.43,6.30,93312.5,689.28
63046,2,3.0,-1.-17,8.71,0.7,0.9,0.12,2.43,6.30,93313.14,689.56
63080,2,2.72,-1.-41,9.30,0.4,0.4,0.1,2.43,6.31,93313.14,689.76
63114,2,2.59,-1.-43,10.3,0.4,0.10,0.-12,2.43,6.30,93314.22,689.28
63148,2,2.17,-1.-38,9.68,0.8,0.27,0.-20,2.43,6.30,93314.22,689.47
63183,2,2.16,-1.-54,8.93,0.7,0.12,0.-24,2.43,6.30,93313.14,689.57
63217,2,1.23,-1.-63,9.37,0.5,0.34,0.-25,2.43,6.30,93316.39,688.60
63251,2,1.62,-1.-11,9.35,0.2,0.37,0.-25,2.50,6.29,93316.39,689.28
63285,2,1.60,-1.-11,9.15,0.-2,0.17,0.-25,2.43,6.29,93307.71,689.85
63319,2,0.81,-1.-72,9.74,0.-10,0.-5,0.-22,2.43,6.31,93315.31,689.76
63353,2,0.80,-1.-97,9.86,0.-21,0.-8,0.-16,2.43,6.30,93309.89,690.82
63387,2,0.79,-3.-16,10.68,0.-24,0.0,0.-9,2.43,6.30,93252.46,697.9
63421,2,0.30,-4.-24,10.50,0.-11,0.-5,0.4,2.37,6.30,93123.51,708.39
63456,2,1.76,-3.-5,10.19,0.3,0.-7,0.13,2.43,6.29,93157.10,700.8
63490,2,2.40,0.50,8.39,0.16,0.21,0.11,2.37,6.30,93302.30,689.37
63524,2,1.17,0.-44,9.81,0.12,0.0,0.0,2.43,6.30,93318.55,689.28
63558,2,1.18,-2.-24,9.78,0.10,0.-21,0.-6,2.43,6.30,93310.96,689.57
63592,2,2.47,-1.-61,9.63,0.7,0.-8,0.-9,2.37,6.30,93308.80,689.18
63626,2,1.22,-1.-58,9.27,0.5,0.13,0.-14,2.37,6.30,93315.30,689.47
63660,2,0.41,-1.-41,9.73,0.5,0.-3,0.-12,2.43,6.30,93315.31,689.37
63696,2,0.59,-1.-67,9.57,0.6,0.-25,0.-9,2.37,6.30,93318.55,689.86
63730,2,1.42,-2.-15,9.70,0.5,0.-53,0.-1,2.37,6.29,93308.80,689.57
63764,2,0.96,-2.-8,10.0,0.2,0.-61,0.5,2.37,6.29,93322.89,688.99
63798,2,1.66,-1.-67,9.87,0.4,-1.-10,0.20,2.43,6.30,93314.22,689.8
63832,2,2.24,-1.-51,9.7,0.0,0.-88,0.22,2.43,6.30,93309.88,689.47
63866,2,2.49,-1.-74,9.94,0.-6,0.-98,0.24,2.37,6.29,93319.64,689.8
63900,2,2.83,-1.-97,9.33,0.-6,-1.-7,0.24,2.43,6.29,93309.88,689.57
63934,2,3.6,-1.-76,9.41,0.-7,0.-95,0.22,2.43,6.29,93320.72,690.5
63969,2,2.79,-2.-27,9.31,0.-2,0.-92,0.22,2.37,6.29,93309.88,689.76
64003,2,4.2,-2.-38,9.79,0.6,0.-79,0.18,2.37,6.29,93309.87,689.28
64037,2,3.71,-2.-19,8.14,0.15,0.-62,0.9,2.37,6.29,93317.46,688.79
64071,2,3.34,-2.-54,8.14,0.15,0.-51,0.1,2.43,6.29,93319.64,689.57
64105,2,4.7,-1.-98,9.12,0.16,0.-74,0.-8,2.37,6.30,93316.38,689.28
64139,2,4.63,-1.-99,9.32,0.19,0.-98,0.-16,2.43,6.29,93320.71,688.99
64173,2,5.25,-2.-17,9.62,0.25,-1.-8,0.-27,2.43,6.29,93322.88,688.70
64207,2,3.85,-1.-86,8.27,0.26,0.-56,0.-30,2.43,6.29,93320.71,689.47
64242,2,4.30,-1.-71,8.30,0.22,0.-75,0.-17,2.37,6.29,93315.30,689.28
64276,2,5.84,-1.-28,7.93,0.22,0.-50,0.-17,2.37,6.29,93316.38,689.28
64310,2,4.17,0.-73,7.49,0.19,0.-8,0.-13,2.37,6.29,93318.55,689.28
64344,2,4.26,-1.-33,7.69,0.13,0.-38,0.1,2.37,6.29,93316.38,689.47
64378,2,5.26,-1.-75,8.60,0.11,0.-47,0.2,2.31,6.29,93313.13,689.8
64412,2,4.95,-1.-84,7.78,0.9,0.-14,0.-1,2.37,6.30,93313.14,689.47
64446,2,4.87,-1.-88,8.25,0.3,0.-32,0.0,2.37,6.29,93317.46,689.8
64480,2,5.21,-1.-96,9.46,0.7,0.-23,0.1,2.43,6.29,93309.88,689.8
64515,2,5.90,-2.-39,8.26,0.14,0.-2,0.-1,2.43,6.29,93309.87,688.99
64549,2,5.65,-1.-43,7.93,0.12,0.-32,0.-11,2.43,6.29,93316.39,689.37
64583,2,5.24,-1.-14,8.37,0.11,0.-25,0.-14,2.43,6.29,93301.21,689.18
64617,2,4.66,-1.0,7.71,0.15,0.-8,0.-13,2.43,6.29,93314.21,689.47
64651,2,5.62,0.-76,7.80,0.14,0.9,0.-10,2.37,6.29,93323.96,689.18
64685,2,5.12,0.-67,8.25,0.14,0.15,0.-10,2.37,6.29,93317.46,688.22
64720,2,4.67,0.-89,8.35,0.13,0.29,0.-7,2.43,6.30,93310.96,689.8
64755,2,5.88,-1.-11,8.55,0.10,0.4,0.-5,2.37,6.29,93331.55,686.77
64789,2,5.38,0.-18,8.22,0.9,0.0,0.-7,2.37,6.29,93380.32,680.79
64823,2,5.51,1.86,7.20,0.2,0.21,0.-7,2.31,6.29,93637.12,644.63
64857,2,3.96,0.89,9.47,0.-5,0.40,0.-7,2.37,6.29,94043.51,647.32
64891,2,2.0,-9.-32,11.44,0.13,0.-20,0.5,2.37,6.29,93313.13,689.85
64925,2,8.22,-2.-84,9.10,0.6,0.-64,0.3,2.37,6.29,93313.14,688.99
64959,2,4.10,0.-66,7.64,0.7,0.16,0.-5,2.43,6.29,93314.21,689.57
64993,2,3.34,0.-80,7.72,0.7,0.20,0.1,2.37,6.29,93313.14,689.18
65028,2,5.16,0.-74,8.14,0.6,0.-24,0.8,2.43,6.29,93314.21,689.28
65062,2,5.13,0.-98,8.62,0.5,0.-7,0.6,2.37,6.29,93320.71,688.79
65096,2,4.92,0.-93,9.6,0.6,0.25,0.1,2.43,6.29,93317.46,689.18
65130,2,4.55,0.-76,8.38,0.8,0.24,0.0,2.37,6.29,93309.87,689.76
65164,2,4.42,-1.-1,7.95,0.10,0.40,0.0,2.37,6.29,93312.4,689.37
65198,2,4.44,-1.-35,8.71,0.11,0.76,0.-1,2.37,6.28,93318.55,689.37
65232,2,4.53,-1.-34,9.28,0.13,0.68,0.-4,2.37,6.29,93309.87,689.47
65266,2,4.51,0.-79,9.15,0.16,0.66,0.-11,2.37,6.29,93309.87,689.47
65301,2,4.13,-1.-25,8.81,0.18,1.13,0.-19,2.37,6.29,93313.13,689.57
65335,2,3.7,-1.-54,8.35,0.19,1.64,0.-29,2.37,6.29,93313.13,689.76
65369,2,2.47,0.-57,7.76,0.15,1.64,0.-29,2.37,6.29,93304.46,689.57
65403,2,1.30,0.-92,9.5,0.14,1.77,0.-28,2.43,6.28,93314.22,689.37
65437,2,0.50,-1.0,10.25,0.18,1.78,0.-27,2.37,6.29,93313.13,689.95
65471,2,0.33,0.-75,9.96,0.22,1.45,0.-24,2.37,6.29,93308.79,690.24
65505,2,0.17,0.0,9.79,0.20,1.24,0.-21,2.37,6.29,93308.79,688.99
65539,2,0.-53,0.-76,9.91,0.18,1.2,0.-15,2.37,6.29,93318.54,689.37
65574,2,0.-44,0.-91,9.65,0.12,0.67,0.-5,2.43,6.28,93308.78,690.53
65608,2,0.-38,-1.-20,10.11,0.10,0.88,0.-5,2.43,6.29,93302.28,689.95
65642,2,-1.-46,0.-46,9.80,0.6,0.57,0.-6,2.37,6.28,93313.13,689.8
65676,2,0.-68,0.-17,9.77,0.4,0.34,0.-1,2.43,6.29,93320.71,689.18
65710,2,-1.-23,-1.-31,10.34,0.13,0.48,0.0,2.37,6.29,93304.46,691.88
65745,2,-1.-50,-1.-75,9.86,0.17,0.66,0.-4,2.43,6.29,93251.36,695.16
65779,2,0.-16,0.13,8.84,0.17,0.33,0.-7,2.43,6.29,93293.63,690.5
65813,2,-2.-27,0.-20,10.57,0.16,0.22,0.-14,2.43,6.29,93313.13,689.57
65848,2,-2.-64,0.-59,8.96,0.20,0.8,0.-13,2.37,6.29,93313.13,689.37
65882,2,-1.-78,0.-16,9.51,0.21,0.19,0.-13,2.43,6.29,93317.46,688.2
