millis(),currentState,Calculated flight time,Time since last log,IMUAcc.acceleration.x,IMUAcc.acceleration.y,IMUAcc.acceleration.z,IMUGyro.gyro.x,IMUGyro.gyro.y,IMUGyro.gyro.z,IMUTher.temperature,BARO.readTemperature,BARO.readPressure,BARO.readAltitude,orientation.actual.roll,orientation.actual.pitch,orientation.actual.yaw
693,2,693,693,3.66,8.66,3.98,0.-4,0.-9,0.-7,3.31,7.59,90888.7,907.71,0.0,0.0,0.0
744,2,744,51,3.86,8.65,3.57,0.1,0.-7,0.-11,3.25,7.61,90886.85,907.42,0.0,0.0,0.0
790,2,790,46,3.50,8.64,3.66,0.-2,0.-9,0.-13,3.12,7.63,90885.73,907.62,0.0,0.0,0.0
833,2,833,43,3.88,8.49,3.94,0.-4,0.-15,0.-12,3.18,7.65,90884.56,907.83,0.0,0.0,0.0
879,2,879,46,3.59,8.62,3.86,0.-4,0.-6,0.-12,3.18,7.65,90882.32,907.24,0.0,0.0,0.0
925,2,925,46,3.20,8.73,3.64,0.1,0.-10,0.-13,3.18,7.67,90879.4,907.84,0.0,0.0,0.0
971,2,971,46,3.39,8.66,3.98,0.1,0.-9,0.-7,3.12,7.66,90891.96,907.94,0.0,0.0,0.0
1018,2,1018,47,3.63,8.65,3.86,0.4,0.-8,0.-6,3.12,7.67,90885.44,907.55,0.0,0.0,0.0
1064,2,1064,46,3.45,8.65,3.45,0.4,0.0,0.-6,3.18,7.67,90886.56,907.94,0.0,0.0,0.0
1107,2,1107,43,3.69,8.57,4.8,0.2,0.1,0.-6,3.12,7.67,90878.92,907.74,0.0,0.0,0.0
1153,2,1153,46,4.7,8.12,4.36,0.6,0.-16,0.-16,3.18,7.67,90884.39,907.55,0.0,0.0,0.0
1199,2,1199,46,3.68,8.66,3.41,0.0,0.-8,0.-13,3.18,7.67,90886.50,907.65,0.0,0.0,0.0
1250,2,1250,51,2.97,8.68,3.90,0.-1,0.-10,0.-15,3.18,7.68,90883.27,907.55,0.0,0.0,0.0
1296,2,1296,46,3.37,8.61,4.0,0.0,0.-9,0.-14,3.12,7.68,90879.98,908.14,0.0,0.0,0.0
1342,2,1342,46,3.44,8.60,4.15,0.1,0.-12,0.-13,3.6,7.67,90898.30,907.75,0.0,0.0,0.0
1385,2,1385,43,3.81,8.47,4.9,0.5,0.-8,0.-9,3.12,7.68,90884.27,907.85,0.0,0.0,0.0
1431,2,1431,46,3.48,8.64,3.81,0.5,0.-9,0.-9,3.18,7.69,90887.50,907.56,0.0,0.0,0.0
1477,2,1477,46,3.51,8.59,3.86,0.4,0.-9,0.-8,3.18,7.68,90882.10,907.95,0.0,0.0,0.0
1523,2,1523,46,3.42,8.60,3.59,0.5,0.-9,0.-10,3.18,7.68,90889.67,907.46,0.0,0.0,0.0
1569,2,1569,46,3.65,8.61,3.51,0.0,0.-8,0.-12,3.18,7.69,90886.44,907.46,0.0,0.0,0.0
1615,2,1615,46,3.42,8.61,4.16,0.-3,0.-9,0.-13,3.12,7.68,90881.3,907.56,0.0,0.0,0.0
1658,2,1658,43,3.23,8.57,4.42,0.0,0.-9,0.-11,3.12,7.68,90883.15,907.66,0.0,0.0,0.0
1704,2,1704,46,3.51,8.66,4.3,0.7,0.-9,0.-7,3.18,7.69,90889.73,907.36,0.0,0.0,0.0
1755,2,1755,51,3.54,8.58,3.85,0.3,0.-9,0.-9,3.18,7.68,90881.10,907.95,0.0,0.0,0.0
1801,2,1801,46,3.56,8.58,3.88,0.3,0.-11,0.-10,3.18,7.68,90883.21,907.55,0.0,0.0,0.0
1847,2,1847,46,3.67,8.62,4.28,0.4,0.-9,0.-11,3.18,7.68,90886.44,907.75,0.0,0.0,0.0
1893,2,1893,46,4.7,8.0,2.68,0.7,0.-34,0.-16,3.18,7.69,90889.73,908.44,0.0,0.0,0.0
1942,2,1942,49,3.38,8.54,4.14,0.-3,0.-7,0.-13,3.18,7.68,90889.73,908.24,0.0,0.0,0.0
1988,2,1988,46,3.62,8.54,4.20,0.0,0.-4,0.-12,3.18,7.68,90886.44,907.95,0.0,0.0,0.0
2035,2,2035,47,3.46,8.67,4.26,0.3,0.-12,0.-15,3.25,7.68,90890.78,908.5,0.0,0.0,0.0
2081,2,2081,46,3.36,8.90,3.19,0.4,0.-9,0.-23,3.25,7.68,90879.98,907.6,0.0,0.0,0.0
2127,2,2127,46,3.80,8.82,4.2,0.0,0.-11,0.-24,3.18,7.68,90889.73,907.65,0.0,0.0,0.0
2173,2,2173,46,0.65,15.73,6.89,0.-14,0.-82,0.-64,3.18,7.68,90885.38,907.85,0.0,0.0,0.0
2222,2,2222,49,2.26,8.81,4.73,0.-15,0.-6,0.-22,3.18,7.68,90883.27,907.95,0.0,0.0,0.0
2273,2,2273,51,3.44,8.60,4.79,0.5,0.-10,0.-9,3.18,7.67,90889.78,907.45,0.0,0.0,0.0
2319,2,2319,46,3.39,8.69,3.79,0.10,0.-9,0.-5,3.12,7.67,90889.67,907.6,0.0,0.0,0.0
2365,2,2365,46,3.56,8.63,3.93,0.9,0.-9,0.-7,3.6,7.68,90885.32,907.36,0.0,0.0,0.0
2411,2,2411,46,3.61,8.68,4.7,0.12,0.-10,0.-6,3.12,7.68,90881.3,907.56,0.0,0.0,0.0
2457,2,2457,46,2.94,8.58,4.13,0.19,0.-10,0.-4,2.93,7.68,90888.67,907.65,0.0,0.0,0.0
2503,2,2503,46,3.39,8.79,3.0,0.22,0.-6,0.0,3.6,7.68,90884.27,907.95,0.0,0.0,0.0
2546,2,2546,43,3.88,8.58,3.50,0.6,0.1,0.-4,3.6,7.68,90886.44,907.56,0.0,0.0,0.0
2592,2,2592,46,3.9,8.62,4.73,0.10,0.3,0.-5,3.6,7.68,90884.27,908.54,0.0,0.0,0.0
2638,2,2638,46,3.58,8.64,3.24,0.17,0.-1,0.1,3.12,7.68,90883.21,908.4,0.0,0.0,0.0
2684,2,2684,46,3.83,8.64,3.48,0.3,0.-6,0.-9,3.6,7.69,90883.21,908.44,0.0,0.0,0.0
2730,2,2730,46,3.35,8.81,3.78,0.-2,0.-1,0.-12,3.0,7.69,90879.92,907.85,0.0,0.0,0.0
2781,2,2781,51,3.19,8.50,4.7,0.1,0.-13,0.-12,3.6,7.69,90893.2,907.85,0.0,0.0,0.0
2825,2,2825,44,3.27,8.80,3.62,0.3,0.-5,0.-11,3.0,7.67,90886.50,907.45,0.0,0.0,0.0
2871,2,2871,46,3.52,8.62,3.83,0.0,0.-22,0.-12,3.6,7.68,90887.56,908.24,0.0,0.0,0.0
2917,2,2917,46,3.43,8.73,3.52,0.0,0.-15,0.-9,3.0,7.69,90884.27,907.95,0.0,0.0,0.0
2963,2,2963,46,3.50,8.64,3.68,0.-14,0.-62,0.-15,3.0,7.69,90886.38,907.76,0.0,0.0,0.0
3009,2,3009,46,3.23,8.63,3.65,0.-12,0.-12,0.-17,3.12,7.68,90886.38,907.85,0.0,0.0,0.0
3056,2,3056,47,3.9,8.61,4.18,0.-9,0.0,0.-14,3.0,7.69,90887.56,907.26,0.0,0.0,0.0
3099,2,3099,43,2.36,8.67,5.35,0.-10,0.-18,0.-17,3.6,7.69,90883.15,908.5,0.0,0.0,0.0
3145,2,3145,46,3.40,8.56,4.7,0.5,0.-24,0.-8,3.0,7.69,90882.3,907.76,0.0,0.0,0.0
3191,2,3191,46,3.57,8.54,4.49,0.8,0.-12,0.-11,3.0,7.69,90888.55,907.85,0.0,0.0,0.0
3237,2,3237,46,3.63,8.59,4.12,0.15,0.-12,0.-14,3.0,7.69,90890.73,907.76,0.0,0.0,0.0
3298,2,3298,61,0.84,8.75,4.26,0.14,0.-18,0.-26,3.6,7.68,90889.73,907.95,0.0,0.0,0.0
3344,2,3344,46,3.6,8.75,4.38,0.11,0.-11,0.-10,3.0,7.68,90884.39,908.14,0.0,0.0,0.0
3404,2,3404,60,3.65,8.74,3.55,0.10,0.-10,0.-8,3.6,7.67,90885.44,907.75,0.0,0.0,0.0
3450,2,3450,46,3.11,8.80,3.65,0.5,0.-7,0.-6,3.12,7.68,90886.50,907.66,0.0,0.0,0.0
3496,2,3496,46,3.26,8.68,4.46,0.14,0.12,0.-1,3.12,7.69,90888.55,907.56,0.0,0.0,0.0
3542,2,3542,46,3.70,8.78,4.23,0.22,0.19,0.0,3.6,7.69,90891.78,907.66,0.0,0.0,0.0
3588,2,3588,46,3.63,8.35,3.95,0.20,0.4,0.-2,3.12,7.70,90888.55,907.86,0.0,0.0,0.0
3634,2,3634,46,3.35,8.81,2.88,0.14,0.-9,0.-10,3.6,7.69,90887.44,908.55,0.0,0.0,0.0
3684,2,3684,50,3.45,8.74,4.4,0.1,0.-8,0.-8,3.12,7.70,90878.75,907.7,0.0,0.0,0.0
3730,2,3730,46,3.27,8.40,4.12,0.7,0.-8,0.-10,3.6,7.70,90887.44,907.27,0.0,0.0,0.0
3776,2,3776,46,3.21,8.65,4.26,0.16,0.8,0.-5,3.12,7.71,90885.27,907.86,0.0,0.0,0.0
3828,2,3828,52,3.28,8.72,3.45,0.16,0.3,0.-1,3.6,7.69,90891.78,908.15,0.0,0.0,0.0
3874,2,3874,46,3.81,8.63,3.67,0.10,0.6,0.-5,3.6,7.70,90879.80,907.46,0.0,0.0,0.0
3920,2,3920,46,3.64,8.63,4.15,0.10,0.-10,0.-9,3.6,7.71,90886.32,907.96,0.0,0.0,0.0
3969,2,3969,49,3.26,8.86,3.41,0.16,0.-6,0.-8,3.0,7.71,90888.50,907.66,0.0,0.0,0.0
4015,2,4015,46,3.34,8.74,3.79,0.12,0.5,0.-1,3.6,7.71,90884.15,907.37,0.0,0.0,0.0
4062,2,4062,47,3.50,8.85,3.40,0.12,0.-7,0.-7,3.0,7.70,90881.98,907.57,0.0,0.0,0.0
4108,2,4108,46,3.46,8.81,3.24,0.8,0.-4,0.-7,3.6,7.70,90883.3,908.6,0.0,0.0,0.0
4154,2,4154,46,3.23,8.82,3.73,0.2,0.-13,0.-5,3.6,7.71,90891.72,907.47,0.0,0.0,0.0
4200,2,4200,46,3.75,8.67,4.5,0.9,0.-16,0.-1,3.6,7.71,90889.55,907.67,0.0,0.0,0.0
4246,2,4246,46,3.57,8.78,3.67,0.15,0.-5,0.-4,3.6,7.71,90888.50,907.7,0.0,0.0,0.0
4289,2,4289,43,4.10,8.79,2.77,0.18,0.7,0.-7,3.6,7.71,90889.55,907.47,0.0,0.0,0.0
4340,2,4340,51,3.56,8.77,3.53,0.1,0.31,0.-16,3.18,7.70,90885.21,907.86,0.0,0.0,0.0
4386,2,4386,46,3.36,8.67,4.36,0.1,0.-10,0.-11,3.25,7.71,90891.72,907.57,0.0,0.0,0.0
4432,2,4432,46,4.85,8.12,3.93,0.7,0.-60,0.-15,3.12,7.71,90884.15,908.26,0.0,0.0,0.0
4478,2,4478,46,2.76,9.5,2.98,0.0,0.-4,0.-1,3.18,7.71,90889.55,907.76,0.0,0.0,0.0
4524,2,4524,46,4.4,8.58,4.5,0.9,0.60,0.1,3.6,7.70,90879.86,907.76,0.0,0.0,0.0
4567,2,4567,43,3.8,8.84,3.28,0.3,0.-9,0.-10,3.12,7.71,90886.32,908.6,0.0,0.0,0.0
4613,2,4613,46,3.35,8.77,3.56,0.2,0.-12,0.-9,3.6,7.71,90887.38,908.16,0.0,0.0,0.0
4659,2,4659,46,3.66,8.81,2.84,0.-6,0.-40,0.-14,3.12,7.71,90885.27,907.96,0.0,0.0,0.0
4705,2,4705,46,3.32,8.80,3.26,0.-15,0.-33,0.-16,3.12,7.71,90885.21,907.47,0.0,0.0,0.0
4751,2,4751,46,3.14,8.74,3.77,0.-23,0.-43,0.-12,3.12,7.71,90884.15,908.55,0.0,0.0,0.0
4797,2,4797,46,3.47,8.69,4.36,0.0,0.-12,0.-14,3.18,7.71,90880.92,908.16,0.0,0.0,0.0
4846,2,4846,49,3.40,8.67,4.3,0.8,0.-11,0.-11,3.18,7.69,90882.3,907.86,0.0,0.0,0.0
4892,2,4892,46,3.43,8.70,3.65,0.13,0.-6,0.-8,3.18,7.70,90885.27,907.57,0.0,0.0,0.0
4938,2,4938,46,3.79,8.67,3.46,0.8,0.-9,0.-8,3.18,7.71,90883.9,908.6,0.0,0.0,0.0
4984,2,4984,46,3.80,8.67,3.70,0.5,0.-8,0.-15,3.25,7.71,90884.9,908.6,0.0,0.0,0.0
5030,2,5030,46,3.21,8.76,3.65,0.6,0.-6,0.-16,3.25,7.71,90884.9,908.6,0.0,0.0,0.0
5077,2,5077,47,3.45,8.69,3.77,0.6,0.-9,0.-12,3.12,7.70,90892.84,907.57,0.0,0.0,0.0
5124,2,5124,47,3.56,8.75,3.68,0.5,0.-8,0.-10,3.18,7.71,90885.21,907.46,0.0,0.0,0.0
5170,2,5170,46,3.46,8.71,3.78,0.6,0.-5,0.-11,3.12,7.71,90885.21,907.67,0.0,0.0,0.0
5216,2,5216,46,3.21,8.79,3.60,0.6,0.-8,0.-10,3.25,7.71,90881.98,907.38,0.0,0.0,0.0
5262,2,5262,46,3.46,8.78,3.79,0.7,0.-4,0.-8,3.12,7.71,90881.98,907.47,0.0,0.0,0.0
5308,2,5308,46,3.23,8.55,3.17,0.4,0.-3,0.-6,3.18,7.72,90882.97,907.47,0.0,0.0,0.0
5369,2,5369,61,3.61,8.65,3.89,0.-2,0.-12,0.-2,3.12,7.70,90888.55,908.16,0.0,0.0,0.0
5412,2,5412,43,3.71,8.70,3.67,0.3,0.5,0.-10,3.12,7.70,90883.9,907.46,0.0,0.0,0.0
5458,2,5458,46,3.90,8.65,3.79,0.7,0.33,0.-11,3.12,7.70,90889.55,907.87,0.0,0.0,0.0
5504,2,5504,46,3.18,8.70,4.1,0.4,0.-10,0.-14,3.6,7.70,90890.61,908.16,0.0,0.0,0.0
5550,2,5550,46,3.51,8.51,4.6,0.6,0.-38,0.-15,3.12,7.71,90893.78,907.67,0.0,0.0,0.0
5596,2,5596,46,3.57,8.70,3.31,0.4,0.-34,0.-14,3.6,7.72,90886.26,907.97,0.0,0.0,0.0
5642,2,5642,46,3.48,8.73,3.84,0.4,0.-12,0.-15,3.0,7.72,90888.38,907.28,0.0,0.0,0.0
5685,2,5685,43,3.12,8.73,3.90,0.6,0.-9,0.-11,3.6,7.72,90884.3,907.58,0.0,0.0,0.0
5731,2,5731,46,3.58,8.72,3.49,0.7,0.-9,0.-9,3.6,7.73,90880.75,908.17,0.0,0.0,0.0
5777,2,5777,46,3.40,8.78,3.68,0.4,0.-9,0.-10,3.0,7.73,90888.38,907.97,0.0,0.0,0.0
5823,2,5823,46,3.39,8.78,3.59,0.4,0.-9,0.-9,3.6,7.73,90887.26,907.87,0.0,0.0,0.0
5875,2,5875,52,3.43,8.73,3.81,0.4,0.-8,0.-8,3.0,7.72,90878.69,907.67,0.0,0.0,0.0
5921,2,5921,46,3.58,8.81,3.43,0.3,0.-10,0.-10,3.0,7.72,90888.38,907.28,0.0,0.0,0.0
5970,2,5970,49,3.51,8.86,3.70,0.-1,0.-14,0.-14,3.0,7.71,90881.86,907.77,0.0,0.0,0.0
6016,2,6016,46,3.77,8.14,4.12,0.-2,0.-12,0.-15,3.6,7.72,90889.43,907.87,0.0,0.0,0.0
6062,2,6062,46,3.24,8.70,3.77,0.2,0.-12,0.-12,3.0,7.72,90883.3,908.17,0.0,0.0,0.0
6109,2,6109,47,3.31,8.70,4.7,0.6,0.-9,0.-10,3.0,7.72,90885.9,907.77,0.0,0.0,0.0
6155,2,6155,46,3.46,8.75,3.26,0.6,0.-9,0.-10,3.6,7.73,90886.21,907.58,0.0,0.0,0.0
6201,2,6201,46,3.53,8.74,3.70,0.0,0.-9,0.-10,3.6,7.73,90887.26,907.77,0.0,0.0,0.0
6247,2,6247,46,3.48,8.76,3.90,0.2,0.-8,0.-10,3.6,7.73,90881.92,907.87,0.0,0.0,0.0
6290,2,6290,43,3.43,8.63,3.67,0.5,0.-10,0.-10,3.0,7.72,90889.50,907.37,0.0,0.0,0.0
6336,2,6336,46,3.30,8.79,3.94,0.8,0.-10,0.-10,3.6,7.72,90886.21,907.88,0.0,0.0,0.0
6387,2,6387,51,3.6,8.93,3.73,0.9,0.-9,0.-5,3.6,7.72,90890.55,907.47,0.0,0.0,0.0
6433,2,6433,46,3.29,8.81,3.39,0.1,0.-10,0.-9,3.6,7.73,90891.60,908.7,0.0,0.0,0.0
6479,2,6479,46,3.44,8.72,3.93,0.0,0.-9,0.-12,3.6,7.73,90890.55,908.27,0.0,0.0,0.0
6525,2,6525,46,3.17,9.30,2.84,0.2,0.-8,0.-12,3.6,7.72,90886.21,907.77,0.0,0.0,0.0
6568,2,6568,43,3.23,8.58,4.19,0.0,0.-12,0.-10,3.12,7.72,90885.9,908.37,0.0,0.0,0.0
6614,2,6614,46,3.29,8.76,4.4,0.6,0.-8,0.-10,3.18,7.73,90882.92,908.17,0.0,0.0,0.0
6660,2,6660,46,3.30,8.72,3.64,0.6,0.-5,0.-8,3.12,7.73,90891.67,907.97,0.0,0.0,0.0
6706,2,6706,46,3.43,8.67,3.64,0.8,0.1,0.-5,3.6,7.74,90880.75,907.88,0.0,0.0,0.0
6752,2,6752,46,5.11,8.97,4.11,0.6,0.-4,0.-11,3.6,7.73,90886.21,907.88,0.0,0.0,0.0
6798,2,6798,46,3.49,8.73,3.93,0.9,0.-9,0.-11,3.12,7.73,90880.75,908.16,0.0,0.0,0.0
6841,2,6841,43,3.38,8.69,3.9,0.6,0.-11,0.-9,3.12,7.73,90884.3,907.68,0.0,0.0,0.0
6892,2,6892,51,3.53,8.17,4.5,0.1,0.-10,0.-11,3.18,7.72,90887.32,907.38,0.0,0.0,0.0
6938,2,6938,46,3.27,8.87,3.50,0.-1,0.-12,0.-10,3.12,7.73,90892.72,907.77,0.0,0.0,0.0
6984,2,6984,46,3.26,8.73,4.21,0.0,0.-15,0.-10,3.12,7.72,90892.67,907.88,0.0,0.0,0.0
7030,2,7030,46,3.44,8.64,3.64,0.2,0.-11,0.-9,3.12,7.73,90887.26,907.58,0.0,0.0,0.0
7076,2,7076,46,3.46,8.74,3.46,0.2,0.-11,0.-8,3.12,7.73,90885.9,907.58,0.0,0.0,0.0
7120,2,7120,44,3.31,8.75,4.20,0.1,0.-14,0.-6,3.12,7.73,90881.86,908.47,0.0,0.0,0.0
7166,2,7166,46,3.95,8.66,3.80,0.6,0.-10,0.-8,3.12,7.74,90886.14,907.48,0.0,0.0,0.0
7212,2,7212,46,3.83,8.68,3.63,0.7,0.-9,0.-15,3.12,7.73,90881.86,908.47,0.0,0.0,0.0
7258,2,7258,46,3.10,8.70,3.36,0.0,0.-17,0.-17,3.12,7.74,90886.14,908.37,0.0,0.0,0.0
7304,2,7304,46,2.98,8.69,4.11,0.1,0.-10,0.-12,3.12,7.73,90886.14,907.98,0.0,0.0,0.0
7350,2,7350,46,3.22,8.71,3.79,0.5,0.-8,0.-8,3.12,7.73,90882.92,908.46,0.0,0.0,0.0
7410,2,7410,60,3.42,8.62,3.85,0.3,0.-8,0.-9,3.18,7.71,90885.21,907.87,0.0,0.0,0.0
7456,2,7456,46,3.34,8.76,3.87,0.4,0.-8,0.-9,3.12,7.72,90888.38,908.37,0.0,0.0,0.0
7502,2,7502,46,3.43,8.46,4.19,0.6,0.-9,0.-10,3.12,7.73,90882.92,908.7,0.0,0.0,0.0
7548,2,7548,46,3.61,8.66,3.63,0.9,0.-9,0.-8,3.12,7.73,90885.9,908.18,0.0,0.0,0.0
7594,2,7594,46,3.29,8.77,3.72,0.5,0.-8,0.-12,3.6,7.73,90882.85,908.28,0.0,0.0,0.0
7640,2,7640,46,3.18,8.68,3.75,0.5,0.-9,0.-7,3.0,7.74,90881.80,908.8,0.0,0.0,0.0
7689,2,7689,49,3.51,8.66,4.16,0.7,0.-4,0.-7,3.6,7.73,90883.97,908.18,0.0,0.0,0.0
7735,2,7735,46,3.30,8.59,3.63,0.8,0.-7,0.-8,3.0,7.73,90889.38,908.27,0.0,0.0,0.0
7781,2,7781,46,3.31,9.10,4.37,0.13,0.0,0.-6,2.87,7.74,90882.85,907.59,0.0,0.0,0.0
7827,2,7827,46,3.45,8.98,3.9,0.17,0.1,0.-7,2.93,7.74,90880.75,908.8,0.0,0.0,0.0
7873,2,7873,46,3.2,8.72,3.94,0.4,0.-9,0.-9,3.0,7.74,90883.92,908.18,0.0,0.0,0.0
7925,2,7925,52,4.4,8.65,4.36,0.9,0.-5,0.-7,3.0,7.73,90886.9,907.78,0.0,0.0,0.0
7971,2,7971,46,2.90,8.77,3.32,0.10,0.-8,0.-13,3.0,7.73,90885.3,907.88,0.0,0.0,0.0
8014,2,8014,43,3.33,8.75,3.51,0.5,0.-6,0.-5,3.0,7.73,90890.43,908.8,0.0,0.0,0.0
8060,2,8060,46,3.77,8.71,3.85,0.6,0.1,0.-6,3.0,7.74,90877.46,908.18,0.0,0.0,0.0
8106,2,8106,46,3.32,8.76,3.77,0.6,0.-9,0.-11,3.0,7.74,90886.9,907.49,0.0,0.0,0.0
8153,2,8153,47,3.31,8.74,3.64,0.5,0.-8,0.-9,3.0,7.74,90887.14,907.29,0.0,0.0,0.0
8199,2,8199,46,3.56,8.74,3.99,0.5,0.0,0.-7,3.6,7.74,90882.80,908.18,0.0,0.0,0.0
8245,2,8245,46,3.41,8.72,3.92,0.5,0.1,0.-7,3.6,7.73,90889.38,907.78,0.0,0.0,0.0
8288,2,8288,43,3.67,8.69,3.55,0.7,0.-5,0.-9,3.6,7.74,90881.80,908.18,0.0,0.0,0.0
8334,2,8334,46,3.41,8.78,3.49,0.1,0.-9,0.-12,3.12,7.74,90881.80,907.88,0.0,0.0,0.0
8380,2,8380,46,3.49,8.64,3.93,0.-3,0.-9,0.-10,3.12,7.75,90883.85,908.67,0.0,0.0,0.0
8431,2,8431,51,3.31,8.76,4.9,0.3,0.-9,0.-12,3.18,7.74,90880.68,907.88,0.0,0.0,0.0
8477,2,8477,46,3.46,8.34,3.84,0.5,0.-9,0.-10,3.25,7.74,90881.75,908.8,0.0,0.0,0.0
8523,2,8523,46,3.27,8.73,4.13,0.9,0.-8,0.-8,3.25,7.74,90891.55,908.28,0.0,0.0,0.0
8566,2,8566,43,3.59,8.47,3.54,0.12,0.-9,0.-6,3.31,7.74,90877.39,907.78,0.0,0.0,0.0
8612,2,8612,46,3.62,8.91,3.53,0.6,0.-8,0.-12,3.25,7.74,90883.92,907.78,0.0,0.0,0.0
8658,2,8658,46,3.13,8.71,3.98,0.0,0.-8,0.-11,3.31,7.74,90880.63,907.78,0.0,0.0,0.0
8704,2,8704,46,3.64,8.68,4.26,0.5,0.-9,0.-9,3.31,7.74,90883.92,907.78,0.0,0.0,0.0
8750,2,8750,46,3.20,8.78,3.48,0.9,0.-8,0.-9,3.37,7.74,90886.9,907.89,0.0,0.0,0.0
8796,2,8796,46,3.46,8.74,3.14,0.3,0.-9,0.-9,3.37,7.75,90889.26,908.18,0.0,0.0,0.0
8839,2,8839,43,3.39,8.77,3.88,0.-1,0.-9,0.-10,3.37,7.75,90888.20,907.89,0.0,0.0,0.0
8885,2,8885,46,3.45,8.66,4.1,0.1,0.-9,0.-9,3.25,7.76,90882.80,907.89,0.0,0.0,0.0
8936,2,8936,51,3.34,8.69,4.7,0.8,0.-9,0.-8,3.31,7.75,90884.97,908.68,0.0,0.0,0.0
8982,2,8982,46,3.46,8.68,3.41,0.9,0.-5,0.-7,3.31,7.74,90883.92,907.89,0.0,0.0,0.0
9028,2,9028,46,3.48,8.68,3.55,0.4,0.-4,0.-7,3.37,7.75,90884.97,907.99,0.0,0.0,0.0
9074,2,9074,46,3.90,8.65,3.68,0.0,0.-6,0.-10,3.25,7.75,90888.20,907.69,0.0,0.0,0.0
9123,2,9123,49,3.15,8.68,3.88,0.0,0.-8,0.-14,3.31,7.74,90887.14,908.28,0.0,0.0,0.0
9170,2,9170,47,3.24,8.70,4.34,0.7,0.-14,0.-9,3.31,7.75,90881.68,907.78,0.0,0.0,0.0
9216,2,9216,46,3.22,8.71,3.69,0.13,0.-9,0.-5,3.25,7.74,90882.74,907.89,0.0,0.0,0.0
9262,2,9262,46,4.23,8.62,3.68,0.9,0.11,0.0,3.25,7.75,90886.9,908.58,0.0,0.0,0.0
9308,2,9308,46,3.62,8.66,3.74,0.0,0.-1,0.-12,3.31,7.75,90883.92,908.48,0.0,0.0,0.0
9354,2,9354,46,3.42,8.70,3.71,0.-3,0.-19,0.-16,3.31,7.75,90881.68,907.69,0.0,0.0,0.0
9403,2,9403,49,3.26,8.68,3.76,0.-3,0.-13,0.-15,3.25,7.75,90882.80,908.18,0.0,0.0,0.0
9455,2,9455,52,3.22,8.69,3.94,0.-3,0.-9,0.-12,3.37,7.74,90882.80,907.89,0.0,0.0,0.0
9501,2,9501,46,2.85,8.71,4.43,0.0,0.-12,0.-11,3.25,7.74,90882.74,907.89,0.0,0.0,0.0
9547,2,9547,46,3.43,8.70,3.92,0.13,0.-5,0.-4,3.31,7.74,90888.14,907.49,0.0,0.0,0.0
9593,2,9593,46,3.51,8.69,3.56,0.12,0.-2,0.-8,3.31,7.75,90882.80,907.59,0.0,0.0,0.0
9639,2,9639,46,3.56,8.70,3.56,0.4,0.-7,0.-10,3.37,7.76,90881.68,907.30,0.0,0.0,0.0
9692,2,9692,53,3.34,8.70,3.89,0.1,0.-7,0.-12,3.25,7.74,90880.63,907.98,0.0,0.0,0.0
9738,2,9738,46,3.48,8.67,3.98,0.1,0.-8,0.-10,3.25,7.75,90880.63,908.29,0.0,0.0,0.0
9784,2,9784,46,3.57,8.67,3.77,0.0,0.-2,0.-11,3.25,7.76,90888.14,907.89,0.0,0.0,0.0
9830,2,9830,46,3.2,8.67,4.14,0.0,0.-7,0.-12,3.31,7.75,90881.68,908.28,0.0,0.0,0.0
9876,2,9876,46,3.29,8.67,4.0,0.4,0.-9,0.-8,3.25,7.76,90881.68,908.8,0.0,0.0,0.0
9922,2,9922,46,3.45,8.65,3.75,0.4,0.-9,0.-9,3.25,7.76,90882.74,908.9,0.0,0.0,0.0
9981,2,9981,59,3.41,8.68,4.7,0.2,0.-6,0.-8,3.25,7.75,90881.75,907.68,0.0,0.0,0.0
10024,2,10024,43,3.62,8.71,4.22,0.5,0.-9,0.-10,3.25,7.74,90889.32,907.89,0.0,0.0,0.0
10070,2,10070,46,3.27,8.49,3.98,0.2,0.-9,0.-12,3.31,7.75,90879.57,908.38,0.0,0.0,0.0
10116,2,10116,46,3.15,8.66,4.0,0.6,0.-10,0.-9,3.37,7.74,90882.80,907.60,0.0,0.0,0.0
10162,2,10162,46,3.25,8.64,4.25,0.9,0.-9,0.-10,3.31,7.76,90888.20,908.29,0.0,0.0,0.0
10209,2,10209,47,3.45,8.63,3.75,0.10,0.-8,0.-10,3.37,7.75,90884.91,908.9,0.0,0.0,0.0
10255,2,10255,46,3.62,8.74,2.90,0.2,0.-7,0.-9,3.37,7.76,90880.57,907.79,0.0,0.0,0.0
10298,2,10298,43,2.13,8.81,4.50,0.-1,0.-8,0.-5,3.31,7.75,90881.62,907.89,0.0,0.0,0.0
10344,2,10344,46,3.27,8.49,5.7,0.4,0.32,0.12,3.31,7.75,90880.57,907.50,0.0,0.0,0.0
10390,2,10390,46,3.44,8.75,3.71,0.8,0.-9,0.-12,3.37,7.75,90887.9,907.99,0.0,0.0,0.0
10436,2,10436,46,3.22,8.67,4.13,0.9,0.-9,0.-8,3.37,7.76,90888.14,908.59,0.0,0.0,0.0
10489,2,10489,53,3.70,8.60,3.76,0.9,0.-9,0.-8,3.31,7.75,90882.80,907.40,0.0,0.0,0.0
10535,2,10535,46,3.41,8.67,3.68,0.6,0.-10,0.-9,3.37,7.74,90879.51,908.48,0.0,0.0,0.0
10578,2,10578,43,3.64,8.61,3.71,0.3,0.-8,0.-10,3.37,7.75,90891.43,907.40,0.0,0.0,0.0
10624,2,10624,46,3.56,8.67,3.37,0.1,0.-7,0.-13,3.37,7.75,90885.97,907.99,0.0,0.0,0.0
10670,2,10670,46,3.3,8.64,3.88,0.-5,0.-9,0.-15,3.43,7.76,90881.62,908.19,0.0,0.0,0.0
10716,2,10716,46,3.38,8.59,4.40,0.-3,0.-2,0.-8,3.43,7.77,90887.3,907.60,0.0,0.0,0.0
10762,2,10762,46,3.31,8.59,4.78,0.4,0.-9,0.-9,3.43,7.76,90887.3,907.99,0.0,0.0,0.0
10808,2,10808,46,3.50,8.61,4.10,0.16,0.-10,0.-4,3.37,7.75,90884.97,908.29,0.0,0.0,0.0
10851,2,10851,43,3.44,8.61,3.65,0.10,0.-31,0.-9,3.50,7.75,90886.3,907.89,0.0,0.0,0.0
10897,2,10897,46,3.67,8.65,3.26,0.10,0.-9,0.-8,3.56,7.75,90890.32,908.9,0.0,0.0,0.0
10943,2,10943,46,3.70,8.68,3.64,0.-3,0.-9,0.-14,3.50,7.77,90884.91,907.60,0.0,0.0,0.0
10994,2,10994,51,3.8,8.55,4.59,0.-5,0.-8,0.-14,3.50,7.75,90885.97,908.9,0.0,0.0,0.0
11040,2,11040,46,3.40,8.59,4.59,0.6,0.-9,0.-7,3.50,7.76,90892.49,908.9,0.0,0.0,0.0
11086,2,11086,46,3.37,8.64,3.91,0.9,0.-3,0.-7,3.56,7.76,90883.92,907.98,0.0,0.0,0.0
11142,2,11142,56,3.52,8.62,3.78,0.6,0.-8,0.-11,3.62,7.75,90880.63,907.79,0.0,0.0,0.0
11188,2,11188,46,3.34,8.65,3.69,0.2,0.-9,0.-10,3.56,7.75,90884.91,907.79,0.0,0.0,0.0
11235,2,11235,47,3.34,8.60,4.35,0.3,0.-9,0.-9,3.62,7.75,90890.32,907.99,0.0,0.0,0.0
11281,2,11281,46,3.45,8.63,3.82,0.7,0.-7,0.-7,3.62,7.76,90880.57,907.60,0.0,0.0,0.0
11327,2,11327,46,3.25,8.62,3.96,0.6,0.-9,0.-9,3.56,7.75,90879.45,907.69,0.0,0.0,0.0
11373,2,11373,46,3.59,8.66,3.63,0.5,0.-9,0.-9,3.56,7.76,90887.9,908.29,0.0,0.0,0.0
11417,2,11417,44,3.64,8.58,3.69,0.0,0.-8,0.-13,3.56,7.76,90887.3,907.90,0.0,0.0,0.0
11463,2,11463,46,3.30,8.59,4.20,0.-3,0.-8,0.-13,3.62,7.76,90881.62,908.9,0.0,0.0,0.0
11515,2,11515,52,3.36,8.59,4.51,0.3,0.-11,0.-7,3.62,7.76,90882.74,908.19,0.0,0.0,0.0
11561,2,11561,46,3.73,8.54,4.36,0.7,0.-11,0.-6,3.62,7.76,90888.14,907.70,0.0,0.0,0.0
11607,2,11607,46,3.25,8.60,4.13,0.11,0.-5,0.-7,3.62,7.76,90883.80,908.39,0.0,0.0,0.0
11653,2,11653,46,4.11,8.22,3.67,0.12,0.0,0.-3,3.62,7.77,90881.62,907.99,0.0,0.0,0.0
11696,2,11696,43,3.57,8.63,3.75,0.1,0.-5,0.-10,3.62,7.76,90887.3,907.89,0.0,0.0,0.0
11742,2,11742,46,3.28,8.64,4.11,0.1,0.-10,0.-10,3.56,7.76,90883.80,908.9,0.0,0.0,0.0
11788,2,11788,46,3.48,8.64,3.96,0.4,0.-10,0.-8,3.62,7.77,90888.8,908.9,0.0,0.0,0.0
11834,2,11834,46,3.52,8.62,4.9,0.4,0.-7,0.-10,3.62,7.77,90885.91,907.11,0.0,0.0,0.0
11880,2,11880,46,3.41,8.62,3.96,0.4,0.-11,0.-11,3.62,7.77,90882.62,908.0,0.0,0.0,0.0
11926,2,11926,46,3.46,8.59,3.97,0.2,0.-12,0.-13,3.62,7.76,90888.8,907.80,0.0,0.0,0.0
11970,2,11970,44,3.19,8.63,4.18,0.4,0.-9,0.-9,3.62,7.77,90882.68,907.40,0.0,0.0,0.0
12031,2,12031,61,3.37,8.62,3.90,0.5,0.-9,0.-9,3.62,7.75,90889.26,907.89,0.0,0.0,0.0
12077,2,12077,46,3.26,8.66,3.99,0.4,0.-9,0.-10,3.56,7.76,90890.26,908.9,0.0,0.0,0.0
12123,2,12123,46,3.48,8.62,3.99,0.4,0.-9,0.-10,3.62,7.76,90887.3,907.11,0.0,0.0,0.0
12169,2,12169,46,3.36,8.64,4.3,0.5,0.-10,0.-9,3.56,7.76,90887.3,908.9,0.0,0.0,0.0
12215,2,12215,46,3.39,8.65,4.3,0.7,0.-9,0.-8,3.56,7.76,90882.68,908.9,0.0,0.0,0.0
12259,2,12259,44,3.50,8.60,3.87,0.6,0.-7,0.-9,3.62,7.77,90889.20,907.60,0.0,0.0,0.0
12305,2,12305,46,3.29,8.64,4.7,0.4,0.-5,0.-9,3.56,7.76,90882.68,907.90,0.0,0.0,0.0
12351,2,12351,46,3.58,8.62,3.88,0.5,0.-7,0.-10,3.62,7.77,90882.68,908.39,0.0,0.0,0.0
12397,2,12397,46,3.13,8.64,4.22,0.4,0.-8,0.-11,3.50,7.77,90890.20,907.41,0.0,0.0,0.0
12443,2,12443,46,3.38,8.64,4.4,0.7,0.-9,0.-9,3.56,7.77,90887.3,907.90,0.0,0.0,0.0
12489,2,12489,46,3.25,8.59,4.8,0.6,0.-9,0.-9,3.56,7.77,90882.62,908.39,0.0,0.0,0.0
12538,2,12538,49,3.34,8.64,3.90,0.6,0.-9,0.-8,3.56,7.77,90882.68,908.9,0.0,0.0,0.0
12584,2,12584,46,3.46,8.62,3.84,0.4,0.-9,0.-9,3.50,7.77,90885.91,907.51,0.0,0.0,0.0
12630,2,12630,46,3.44,8.61,4.1,0.3,0.-9,0.-10,3.56,7.78,90892.37,908.20,0.0,0.0,0.0
12676,2,12676,46,3.42,8.67,4.12,0.3,0.-12,0.-11,3.50,7.77,90885.91,907.80,0.0,0.0,0.0
12722,2,12722,46,3.43,8.62,3.99,0.4,0.-9,0.-9,3.56,7.78,90884.79,907.71,0.0,0.0,0.0
12768,2,12768,46,3.40,8.59,4.7,0.4,0.-9,0.-9,3.56,7.78,90883.74,907.71,0.0,0.0,0.0
12811,2,12811,43,3.41,8.67,4.3,0.4,0.-9,0.-9,3.50,7.77,90882.68,907.71,0.0,0.0,0.0
12857,2,12857,46,3.33,8.67,3.91,0.5,0.-9,0.-10,3.56,7.78,90877.22,908.50,0.0,0.0,0.0
12903,2,12903,46,3.35,8.61,4.4,0.5,0.-9,0.-10,3.62,7.77,90881.50,907.71,0.0,0.0,0.0
12949,2,12949,46,3.38,8.65,4.3,0.5,0.-8,0.-9,3.56,7.78,90882.62,908.69,0.0,0.0,0.0
12995,2,12995,46,3.51,8.65,3.95,0.5,0.-8,0.-9,3.56,7.78,90895.60,908.30,0.0,0.0,0.0
13046,2,13046,51,3.35,8.59,4.1,0.5,0.-9,0.-9,3.50,7.77,90885.91,908.20,0.0,0.0,0.0
13089,2,13089,43,3.36,8.67,4.1,0.5,0.-9,0.-8,3.56,7.77,90879.39,907.90,0.0,0.0,0.0
13135,2,13135,46,3.48,8.59,4.1,0.4,0.-8,0.-9,3.56,7.77,90882.68,907.90,0.0,0.0,0.0
13181,2,13181,46,3.44,8.60,3.90,0.5,0.-9,0.-10,3.50,7.77,90882.68,907.91,0.0,0.0,0.0
13227,2,13227,46,3.48,8.28,3.95,0.4,0.-8,0.-10,3.50,7.78,90886.91,907.91,0.0,0.0,0.0
13274,2,13274,47,3.50,8.59,4.0,0.4,0.-10,0.-10,3.43,7.77,90886.91,907.21,0.0,0.0,0.0
13320,2,13320,46,3.42,8.57,4.8,0.5,0.-10,0.-10,3.50,7.78,90882.62,908.30,0.0,0.0,0.0
13363,2,13363,43,3.46,8.65,4.1,0.4,0.-9,0.-9,3.50,7.77,90890.26,907.81,0.0,0.0,0.0
13409,2,13409,46,3.44,8.62,3.97,0.5,0.-9,0.-9,3.56,7.77,90881.50,908.40,0.0,0.0,0.0
13455,2,13455,46,3.46,8.62,4.0,0.5,0.-9,0.-9,3.56,7.79,90880.45,907.61,0.0,0.0,0.0
13501,2,13501,46,3.34,8.61,3.94,0.5,0.-9,0.-9,3.50,7.78,90880.39,907.90,0.0,0.0,0.0
13552,2,13552,51,3.46,8.61,4.1,0.5,0.-9,0.-10,3.56,7.78,90878.28,907.81,0.0,0.0,0.0
13598,2,13598,46,3.37,8.65,4.1,0.5,0.-9,0.-9,3.50,7.77,90885.85,907.81,0.0,0.0,0.0
13641,2,13641,43,3.47,8.74,4.10,0.5,0.-8,0.-9,3.50,7.77,90881.50,907.80,0.0,0.0,0.0
13687,2,13687,46,3.44,8.59,4.6,0.5,0.-9,0.-9,3.56,7.78,90885.85,908.50,0.0,0.0,0.0
13733,2,13733,46,3.26,8.63,3.98,0.4,0.-10,0.-8,3.56,7.78,90888.3,907.91,0.0,0.0,0.0
13779,2,13779,46,3.57,8.59,3.96,0.4,0.-9,0.-10,3.50,7.78,90884.74,907.61,0.0,0.0,0.0
13825,2,13825,46,3.45,8.64,3.81,0.1,0.-12,0.-12,3.50,7.78,90884.74,908.40,0.0,0.0,0.0
13871,2,13871,46,3.31,8.62,4.16,0.0,0.-16,0.-13,3.62,7.78,90894.54,908.10,0.0,0.0,0.0
13914,2,13914,43,3.51,8.60,4.1,0.4,0.-9,0.-12,3.56,7.78,90891.25,907.71,0.0,0.0,0.0
13960,2,13960,46,3.43,8.55,4.12,0.0,0.-8,0.-15,3.56,7.79,90886.91,908.11,0.0,0.0,0.0
14006,2,14006,46,2.95,8.66,3.88,0.7,0.-8,0.-6,3.56,7.78,90886.91,907.91,0.0,0.0,0.0
14057,2,14057,51,3.59,8.61,4.15,0.2,0.-10,0.-7,3.56,7.78,90886.91,908.20,0.0,0.0,0.0
14103,2,14103,46,3.54,8.58,4.14,0.5,0.-10,0.-10,3.62,7.77,90885.79,908.30,0.0,0.0,0.0
14149,2,14149,46,3.32,8.68,3.93,0.7,0.-8,0.-10,3.62,7.78,90881.57,907.81,0.0,0.0,0.0
14196,2,14196,47,3.36,8.66,3.99,0.5,0.-9,0.-9,3.56,7.77,90889.8,907.71,0.0,0.0,0.0
14242,2,14242,46,3.47,8.61,4.0,0.5,0.-9,0.-9,3.56,7.79,90883.67,907.71,0.0,0.0,0.0
14289,2,14289,47,3.39,8.64,4.3,0.4,0.-8,0.-9,3.56,7.79,90885.79,907.22,0.0,0.0,0.0
14335,2,14335,46,3.29,8.60,4.7,0.4,0.-9,0.-9,3.56,7.79,90889.8,907.52,0.0,0.0,0.0
14381,2,14381,46,3.39,8.60,3.99,0.4,0.-9,0.-9,3.56,7.79,90887.96,908.21,0.0,0.0,0.0
14427,2,14427,46,3.39,8.63,4.2,0.3,0.-9,0.-10,3.56,7.78,90882.57,907.81,0.0,0.0,0.0
14470,2,14470,43,3.42,8.63,4.11,0.3,0.-9,0.-9,3.56,7.79,90891.25,907.32,0.0,0.0,0.0
14516,2,14516,46,3.42,8.67,4.3,0.4,0.-9,0.-9,3.56,7.79,90890.14,908.31,0.0,0.0,0.0
14576,2,14576,60,3.38,8.62,4.5,0.3,0.-14,0.-10,3.56,7.78,90882.62,907.91,0.0,0.0,0.0
14622,2,14622,46,3.37,8.68,4.2,0.4,0.-10,0.-10,3.56,7.79,90882.57,908.10,0.0,0.0,0.0
14668,2,14668,46,3.34,8.59,4.1,0.4,0.-9,0.-10,3.56,7.79,90886.97,908.11,0.0,0.0,0.0
14714,2,14714,46,3.48,8.60,4.1,0.4,0.-11,0.-9,3.56,7.78,90883.67,907.21,0.0,0.0,0.0
14757,2,14757,43,3.53,8.62,4.1,0.4,0.-8,0.-10,3.62,7.78,90884.74,907.41,0.0,0.0,0.0
14803,2,14803,46,3.38,8.27,4.16,0.4,0.-9,0.-11,3.56,7.78,90889.8,907.81,0.0,0.0,0.0
14849,2,14849,46,3.34,8.64,4.0,0.5,0.-10,0.-10,3.62,7.79,90878.21,907.81,0.0,0.0,0.0
14895,2,14895,46,3.33,8.64,4.9,0.6,0.-9,0.-9,3.62,7.80,90887.96,908.11,0.0,0.0,0.0
14941,2,14941,46,3.38,8.62,4.3,0.7,0.-7,0.-8,3.62,7.79,90879.28,907.91,0.0,0.0,0.0
14987,2,14987,46,3.46,8.60,4.2,0.6,0.-7,0.-9,3.62,7.78,90884.74,907.81,0.0,0.0,0.0
15030,2,15030,43,3.32,8.65,4.0,0.5,0.-9,0.-9,3.56,7.78,90881.45,908.11,0.0,0.0,0.0
15082,2,15082,52,3.37,8.61,4.6,0.5,0.-10,0.-9,3.56,7.78,90886.85,907.71,0.0,0.0,0.0
15128,2,15128,46,3.52,8.59,3.99,0.4,0.-9,0.-9,3.56,7.79,90885.79,907.72,0.0,0.0,0.0
15174,2,15174,46,3.37,8.59,4.0,0.4,0.-9,0.-10,3.62,7.80,90883.62,908.1,0.0,0.0,0.0
15220,2,15220,46,3.36,8.70,4.7,0.4,0.-9,0.-10,3.56,7.79,90878.16,908.11,0.0,0.0,0.0
15266,2,15266,46,3.43,8.60,4.4,0.5,0.-10,0.-10,3.50,7.79,90890.14,908.11,0.0,0.0,0.0
15310,2,15310,44,3.40,8.58,3.95,0.5,0.-8,0.-9,3.62,7.79,90881.45,907.61,0.0,0.0,0.0
15356,2,15356,46,3.33,8.62,4.1,0.4,0.-11,0.-10,3.62,7.80,90889.3,907.82,0.0,0.0,0.0
15402,2,15402,46,3.42,8.66,4.1,0.3,0.-15,0.-8,3.62,7.79,90887.91,908.1,0.0,0.0,0.0
15448,2,15448,46,3.57,8.62,4.10,0.3,0.-15,0.-8,3.62,7.80,90883.56,907.61,0.0,0.0,0.0
15494,2,15494,46,3.51,8.61,3.97,0.5,0.-8,0.-10,3.68,7.80,90887.91,907.91,0.0,0.0,0.0
15540,2,15540,46,3.44,8.59,3.86,0.4,0.-6,0.-10,3.62,7.78,90893.37,907.61,0.0,0.0,0.0
15588,2,15588,48,3.44,8.63,3.99,0.3,0.-9,0.-11,3.68,7.79,90887.96,908.0,0.0,0.0,0.0
15634,2,15634,46,3.34,8.67,4.8,0.3,0.-10,0.-11,3.62,7.79,90892.32,907.91,0.0,0.0,0.0
15680,2,15680,46,3.35,8.70,4.7,0.5,0.-9,0.-9,3.56,7.80,90885.79,907.82,0.0,0.0,0.0
15726,2,15726,46,3.43,8.60,3.99,0.5,0.-7,0.-9,3.56,7.80,90882.50,908.11,0.0,0.0,0.0
15772,2,15772,46,3.37,8.61,3.97,0.6,0.-7,0.-10,3.56,7.80,90887.91,907.72,0.0,0.0,0.0
15818,2,15818,46,3.51,8.62,4.0,0.4,0.-7,0.-9,3.50,7.80,90891.14,907.61,0.0,0.0,0.0
15861,2,15861,43,3.33,8.67,4.7,0.5,0.-10,0.-9,3.56,7.79,90886.79,907.72,0.0,0.0,0.0
15907,2,15907,46,3.49,8.59,4.1,0.6,0.-9,0.-8,3.56,7.80,90883.62,908.21,0.0,0.0,0.0
15953,2,15953,46,3.52,8.62,3.90,0.5,0.-8,0.-9,3.56,7.80,90882.50,907.82,0.0,0.0,0.0
15999,2,15999,46,3.53,8.61,3.90,0.4,0.-8,0.-10,3.56,7.80,90890.8,907.42,0.0,0.0,0.0
16045,2,16045,46,3.49,8.62,3.89,0.2,0.-10,0.-11,3.50,7.80,90891.14,907.72,0.0,0.0,0.0
16096,2,16096,51,3.33,8.59,4.20,0.3,0.-9,0.-10,3.56,7.80,90882.57,907.91,0.0,0.0,0.0
16139,2,16139,43,3.48,8.60,3.91,0.5,0.-8,0.-9,3.56,7.80,90880.33,907.3,0.0,0.0,0.0
16185,2,16185,46,3.37,8.62,4.0,0.4,0.-10,0.-9,3.62,7.79,90884.67,908.11,0.0,0.0,0.0
16231,2,16231,46,3.45,8.57,4.2,0.4,0.-9,0.-9,3.62,7.80,90885.73,907.91,0.0,0.0,0.0
16277,2,16277,46,3.35,8.64,3.95,0.4,0.-8,0.-10,3.56,7.80,90879.28,907.62,0.0,0.0,0.0
16324,2,16324,47,3.45,8.64,3.96,0.3,0.-10,0.-10,3.56,7.80,90885.73,907.62,0.0,0.0,0.0
16370,2,16370,46,3.39,8.62,4.4,0.3,0.-10,0.-10,3.62,7.80,90882.57,908.1,0.0,0.0,0.0
16415,2,16415,45,3.32,8.64,4.4,0.4,0.-11,0.-9,3.56,7.80,90881.45,907.82,0.0,0.0,0.0
16461,2,16461,46,3.46,8.59,4.5,0.4,0.-11,0.-9,3.62,7.80,90886.85,907.62,0.0,0.0,0.0
16507,2,16507,46,3.46,8.57,3.92,0.5,0.-8,0.-9,3.56,7.80,90887.91,908.40,0.0,0.0,0.0
16553,2,16553,46,3.45,8.59,3.99,0.5,0.-9,0.-10,3.56,7.80,90882.44,907.52,0.0,0.0,0.0
16615,2,16615,62,3.42,8.60,3.95,0.5,0.-9,0.-9,3.62,7.78,90889.3,908.11,0.0,0.0,0.0
16661,2,16661,46,3.54,8.61,4.1,0.5,0.-10,0.-10,3.62,7.79,90884.74,907.91,0.0,0.0,0.0
16704,2,16704,43,3.43,8.59,4.5,0.5,0.-6,0.-10,3.62,7.79,90883.62,907.61,0.0,0.0,0.0
16750,2,16750,46,3.27,8.67,3.98,0.5,0.-8,0.-10,3.62,7.79,90885.79,908.21,0.0,0.0,0.0
16796,2,16796,46,3.45,8.59,3.99,0.5,0.-10,0.-9,3.62,7.79,90880.33,908.2,0.0,0.0,0.0
16842,2,16842,46,3.35,8.62,4.0,0.5,0.-9,0.-10,3.62,7.80,90888.96,906.83,0.0,0.0,0.0
16888,2,16888,46,3.47,8.61,3.97,0.5,0.-10,0.-9,3.62,7.80,90882.39,907.43,0.0,0.0,0.0
16934,2,16934,46,3.36,8.62,4.0,0.4,0.-7,0.-9,3.68,7.80,90879.28,907.72,0.0,0.0,0.0
16977,2,16977,43,3.46,8.59,3.99,0.4,0.-10,0.-9,3.68,7.80,90884.62,907.42,0.0,0.0,0.0
17023,2,17023,46,3.39,8.61,3.92,0.4,0.-9,0.-9,3.56,7.80,90881.39,908.51,0.0,0.0,0.0
17069,2,17069,46,3.42,8.60,4.5,0.4,0.-10,0.-10,3.62,7.81,90883.50,908.12,0.0,0.0,0.0
17121,2,17121,52,3.43,8.62,3.98,0.5,0.-8,0.-10,3.56,7.80,90882.44,908.11,0.0,0.0,0.0
17167,2,17167,46,3.45,8.61,4.2,0.4,0.-9,0.-9,3.62,7.80,90883.50,907.52,0.0,0.0,0.0
17213,2,17213,46,3.42,8.64,4.4,0.5,0.-9,0.-9,3.56,7.80,90891.20,907.92,0.0,0.0,0.0
17256,2,17256,43,3.44,8.58,4.0,0.5,0.-10,0.-10,3.62,7.80,90891.14,907.72,0.0,0.0,0.0
17302,2,17302,46,3.41,8.59,3.96,0.4,0.-9,0.-9,3.56,7.80,90885.67,908.12,0.0,0.0,0.0
17349,2,17349,47,3.51,8.59,4.2,0.4,0.-9,0.-9,3.56,7.81,90882.39,907.82,0.0,0.0,0.0
17395,2,17395,46,3.44,8.60,3.95,0.5,0.-10,0.-9,3.56,7.82,90879.15,908.2,0.0,0.0,0.0
17441,2,17441,46,3.41,8.62,4.5,0.5,0.-9,0.-10,3.62,7.80,90880.27,907.63,0.0,0.0,0.0
17487,2,17487,46,3.47,8.59,4.4,0.4,0.-9,0.-9,3.56,7.81,90885.67,907.53,0.0,0.0,0.0
17530,2,17530,43,3.42,8.58,3.96,0.5,0.-9,0.-9,3.62,7.81,90891.14,907.53,0.0,0.0,0.0
17576,2,17576,46,3.44,8.64,4.2,0.4,0.-9,0.-9,3.56,7.80,90882.39,908.12,0.0,0.0,0.0
17627,2,17627,51,3.41,8.56,3.94,0.5,0.-9,0.-10,3.50,7.81,90885.67,907.62,0.0,0.0,0.0
17673,2,17673,46,3.45,8.68,4.0,0.4,0.-9,0.-9,3.62,7.81,90892.19,907.92,0.0,0.0,0.0
17719,2,17719,46,3.41,8.61,4.7,0.5,0.-9,0.-9,3.62,7.80,90881.33,907.73,0.0,0.0,0.0
17765,2,17765,46,3.39,8.56,3.94,0.5,0.-9,0.-9,3.62,7.81,90888.78,908.3,0.0,0.0,0.0
17808,2,17808,43,3.51,8.62,4.2,0.5,0.-9,0.-10,3.62,7.81,90887.78,907.33,0.0,0.0,0.0
17854,2,17854,46,3.47,8.59,4.2,0.4,0.-9,0.-9,3.62,7.81,90886.67,907.93,0.0,0.0,0.0
17900,2,17900,46,3.47,8.62,3.98,0.5,0.-9,0.-10,3.62,7.82,90885.61,907.64,0.0,0.0,0.0
17946,2,17946,46,3.49,8.59,4.2,0.4,0.-9,0.-9,3.62,7.82,90891.2,907.63,0.0,0.0,0.0
17992,2,17992,46,3.44,8.55,4.0,0.5,0.-10,0.-9,3.68,7.82,90891.2,908.42,0.0,0.0,0.0
18038,2,18038,46,3.46,8.60,3.98,0.4,0.-9,0.-9,3.62,7.82,90886.67,907.74,0.0,0.0,0.0
18081,2,18081,43,3.37,8.62,3.90,0.5,0.-9,0.-9,3.62,7.82,90886.67,907.73,0.0,0.0,0.0
18132,2,18132,51,3.42,8.59,3.97,0.5,0.-9,0.-9,3.62,7.81,90887.78,907.92,0.0,0.0,0.0
18178,2,18178,46,3.43,8.60,3.98,0.5,0.-8,0.-10,3.62,7.81,90883.44,908.71,0.0,0.0,0.0
18224,2,18224,46,3.45,8.57,3.94,0.5,0.-9,0.-9,3.62,7.81,90882.39,907.43,0.0,0.0,0.0
18270,2,18270,46,3.46,8.58,4.1,0.5,0.-9,0.-9,3.68,7.81,90887.85,908.3,0.0,0.0,0.0
18316,2,18316,46,3.48,8.57,4.1,0.4,0.-9,0.-9,3.56,7.82,90887.78,907.84,0.0,0.0,0.0
18360,2,18360,44,3.55,8.63,4.2,0.5,0.-9,0.-9,3.62,7.82,90888.85,907.92,0.0,0.0,0.0
18406,2,18406,46,3.47,8.61,3.96,0.5,0.-9,0.-10,3.56,7.82,90882.32,907.73,0.0,0.0,0.0
18452,2,18452,46,3.44,8.57,3.95,0.5,0.-9,0.-9,3.62,7.82,90884.56,907.44,0.0,0.0,0.0
18498,2,18498,46,3.42,8.58,3.98,0.5,0.-9,0.-9,3.62,7.81,90881.27,907.93,0.0,0.0,0.0
18544,2,18544,46,3.47,8.61,3.99,0.4,0.-8,0.-10,3.62,7.81,90881.27,907.73,0.0,0.0,0.0
18590,2,18590,46,3.46,8.57,3.97,0.5,0.-9,0.-9,3.62,7.82,90886.67,907.53,0.0,0.0,0.0
18662,2,18662,72,3.52,8.58,4.4,0.5,0.-9,0.-9,3.68,7.80,90879.21,908.2,0.0,0.0,0.0
18708,2,18708,46,3.41,8.59,3.96,0.5,0.-9,0.-9,3.68,7.80,90886.79,907.72,0.0,0.0,0.0
18754,2,18754,46,3.46,8.63,3.96,0.5,0.-9,0.-10,3.68,7.81,90883.50,907.82,0.0,0.0,0.0
18800,2,18800,46,3.53,8.59,4.0,0.4,0.-9,0.-9,3.68,7.81,90886.73,907.83,0.0,0.0,0.0
18846,2,18846,46,3.49,8.60,3.95,0.4,0.-9,0.-9,3.62,7.81,90882.39,908.3,0.0,0.0,0.0
18892,2,18892,46,3.45,8.61,3.98,0.5,0.-9,0.-10,3.56,7.81,90885.61,908.3,0.0,0.0,0.0
18941,2,18941,49,3.52,8.58,4.0,0.4,0.-10,0.-10,3.56,7.81,90884.56,908.3,0.0,0.0,0.0
18987,2,18987,46,3.40,8.59,4.5,0.4,0.-9,0.-10,3.62,7.81,90879.3,907.44,0.0,0.0,0.0
19033,2,19033,46,3.52,8.58,4.2,0.5,0.-9,0.-9,3.62,7.81,90886.67,908.12,0.0,0.0,0.0
19079,2,19079,46,3.45,8.62,3.98,0.4,0.-9,0.-10,3.62,7.82,90889.90,908.42,0.0,0.0,0.0
19125,2,19125,46,3.44,8.63,4.1,0.5,0.-9,0.-9,3.68,7.82,90886.67,907.53,0.0,0.0,0.0
19177,2,19177,52,3.42,8.59,3.97,0.4,0.-9,0.-9,3.62,7.82,90882.39,908.3,0.0,0.0,0.0
19226,2,19226,49,3.43,8.57,3.99,0.4,0.-9,0.-9,3.56,7.81,90884.56,907.83,0.0,0.0,0.0
19272,2,19272,46,3.45,8.58,3.98,0.5,0.-9,0.-9,3.62,7.81,90882.32,908.13,0.0,0.0,0.0
19318,2,19318,46,3.46,8.59,3.98,0.5,0.-9,0.-10,3.62,7.82,90885.56,907.53,0.0,0.0,0.0
19365,2,19365,47,3.43,8.58,3.98,0.5,0.-8,0.-10,3.68,7.81,90883.44,908.3,0.0,0.0,0.0
19411,2,19411,46,3.43,8.55,3.93,0.5,0.-9,0.-10,3.62,7.83,90883.44,907.44,0.0,0.0,0.0
19457,2,19457,46,3.41,8.57,4.7,0.4,0.-8,0.-9,3.68,7.82,90876.92,908.13,0.0,0.0,0.0
19506,2,19506,49,3.45,8.59,3.95,0.5,0.-9,0.-10,3.62,7.82,90887.78,907.83,0.0,0.0,0.0
19552,2,19552,46,3.48,8.33,3.94,0.5,0.-9,0.-10,3.62,7.82,90882.32,907.93,0.0,0.0,0.0
19598,2,19598,46,3.52,8.60,4.2,0.5,0.-9,0.-9,3.56,7.82,90884.50,907.14,0.0,0.0,0.0
19644,2,19644,46,3.38,8.64,3.92,0.5,0.-9,0.-10,3.56,7.82,90885.56,907.73,0.0,0.0,0.0
19695,2,19695,51,3.40,8.58,3.98,0.5,0.-9,0.-10,3.62,7.82,90882.32,907.83,0.0,0.0,0.0
19741,2,19741,46,3.45,8.58,3.94,0.5,0.-9,0.-9,3.62,7.82,90886.67,907.53,0.0,0.0,0.0
19790,2,19790,49,3.43,8.63,4.5,0.4,0.-9,0.-10,3.62,7.83,90889.90,907.93,0.0,0.0,0.0
19836,2,19836,46,3.56,8.63,4.2,0.5,0.-9,0.-9,3.62,7.82,90883.38,907.54,0.0,0.0,0.0
19882,2,19882,46,3.39,8.62,4.5,0.5,0.-9,0.-10,3.50,7.83,90889.90,907.44,0.0,0.0,0.0
19928,2,19928,46,3.46,8.61,4.1,0.5,0.-9,0.-9,3.62,7.82,90881.21,907.83,0.0,0.0,0.0
19974,2,19974,46,3.44,8.62,3.96,0.5,0.-9,0.-10,3.56,7.83,90881.15,907.93,0.0,0.0,0.0
20020,2,20020,46,3.46,8.59,3.99,0.4,0.-9,0.-9,3.68,7.83,90887.67,908.43,0.0,0.0,0.0
20069,2,20069,49,3.50,8.56,3.99,0.5,0.-9,0.-10,3.68,7.83,90890.96,907.34,0.0,0.0,0.0
20115,2,20115,46,3.43,8.59,3.98,0.5,0.-9,0.-10,3.56,7.83,90880.9,908.13,0.0,0.0,0.0
20161,2,20161,46,3.49,8.59,4.0,0.4,0.-9,0.-9,3.62,7.84,90886.61,907.84,0.0,0.0,0.0
20212,2,20212,51,3.65,8.60,3.84,0.3,0.-9,0.-11,3.68,7.82,90893.14,907.54,0.0,0.0,0.0
20258,2,20258,46,3.44,8.59,3.94,0.1,0.-10,0.-14,3.62,7.82,90888.78,908.13,0.0,0.0,0.0
20304,2,20304,46,3.15,8.59,4.26,0.2,0.-12,0.-12,3.56,7.83,90886.67,908.3,0.0,0.0,0.0
20353,2,20353,49,3.34,8.64,4.8,0.6,0.-9,0.-7,3.56,7.83,90881.21,907.83,0.0,0.0,0.0
20400,2,20400,47,3.55,8.59,3.94,0.7,0.-9,0.-7,3.56,7.83,90880.9,907.44,0.0,0.0,0.0
20446,2,20446,46,3.46,8.59,4.2,0.4,0.-9,0.-10,3.62,7.83,90889.90,908.4,0.0,0.0,0.0
20492,2,20492,46,3.52,8.64,3.90,0.5,0.-9,0.-9,3.56,7.83,90882.32,907.93,0.0,0.0,0.0
20538,2,20538,46,3.44,8.62,4.1,0.4,0.-9,0.-10,3.68,7.83,90888.78,908.23,0.0,0.0,0.0
20584,2,20584,46,3.50,8.60,4.4,0.5,0.-9,0.-9,3.62,7.83,90886.55,907.44,0.0,0.0,0.0
20633,2,20633,49,3.40,8.61,4.1,0.5,0.-9,0.-10,3.62,7.83,90885.56,907.64,0.0,0.0,0.0
20679,2,20679,46,3.46,8.60,3.98,0.5,0.-9,0.-9,3.62,7.82,90880.9,907.84,0.0,0.0,0.0
20730,2,20730,51,3.43,8.57,3.95,0.5,0.-9,0.-9,3.62,7.82,90880.15,908.23,0.0,0.0,0.0
20776,2,20776,46,3.54,8.58,4.1,0.5,0.-9,0.-9,3.62,7.83,90886.61,907.64,0.0,0.0,0.0
20822,2,20822,46,3.44,8.59,3.94,0.4,0.-8,0.-10,3.62,7.83,90885.56,907.5,0.0,0.0,0.0
20868,2,20868,46,3.46,8.65,4.0,0.4,0.-9,0.-9,3.62,7.83,90885.56,907.83,0.0,0.0,0.0
20914,2,20914,46,3.53,8.58,4.4,0.5,0.-9,0.-10,3.56,7.83,90885.56,907.54,0.0,0.0,0.0
20958,2,20958,44,3.46,8.62,4.0,0.5,0.-9,0.-9,3.68,7.81,90880.15,906.85,0.0,0.0,0.0
21004,2,21004,46,3.47,8.60,3.98,0.5,0.-9,0.-10,3.62,7.83,90888.73,907.74,0.0,0.0,0.0
21050,2,21050,46,3.40,8.58,3.98,0.4,0.-9,0.-9,3.62,7.83,90883.32,907.83,0.0,0.0,0.0
21096,2,21096,46,3.53,8.62,4.5,0.5,0.-9,0.-10,3.62,7.82,90886.61,907.44,0.0,0.0,0.0
21142,2,21142,46,3.57,8.18,4.10,0.5,0.-7,0.-9,3.68,7.85,90883.38,907.44,0.0,0.0,0.0
21188,2,21188,46,3.46,8.66,3.99,0.5,0.-9,0.-9,3.62,7.83,90886.67,908.33,0.0,0.0,0.0
21246,2,21246,58,3.47,8.57,3.97,0.4,0.-9,0.-9,3.68,7.82,90884.56,907.53,0.0,0.0,0.0
21292,2,21292,46,3.47,8.59,3.97,0.5,0.-9,0.-9,3.68,7.81,90886.67,907.54,0.0,0.0,0.0
21338,2,21338,46,3.47,8.60,3.99,0.4,0.-9,0.-9,3.68,7.83,90888.73,907.83,0.0,0.0,0.0
21384,2,21384,46,3.44,8.54,3.92,0.5,0.-9,0.-9,3.68,7.83,90883.32,907.93,0.0,0.0,0.0
21431,2,21431,47,3.46,8.62,3.98,0.5,0.-9,0.-10,3.62,7.84,90880.3,907.94,0.0,0.0,0.0
21477,2,21477,46,3.48,8.59,4.1,0.4,0.-9,0.-9,3.68,7.83,90887.67,908.43,0.0,0.0,0.0
21520,2,21520,43,3.53,8.58,3.99,0.5,0.-9,0.-10,3.68,7.84,90884.44,907.94,0.0,0.0,0.0
21566,2,21566,46,3.45,8.58,3.95,0.5,0.-8,0.-10,3.62,7.83,90884.38,907.64,0.0,0.0,0.0
21612,2,21612,46,3.46,8.57,3.93,0.4,0.-9,0.-9,3.68,7.83,90885.50,908.33,0.0,0.0,0.0
21658,2,21658,46,3.45,8.64,3.99,0.5,0.-9,0.-9,3.62,7.83,90883.26,908.54,0.0,0.0,0.0
21704,2,21704,46,3.55,8.60,4.1,0.4,0.-9,0.-9,3.62,7.84,90888.67,907.55,0.0,0.0,0.0
21756,2,21756,52,3.46,8.60,3.98,0.5,0.-9,0.-10,3.62,7.84,90885.50,908.3,0.0,0.0,0.0
21799,2,21799,43,3.48,8.62,4.3,0.4,0.-9,0.-9,3.62,7.83,90885.50,907.84,0.0,0.0,0.0
21845,2,21845,46,3.46,8.61,3.94,0.5,0.-9,0.-10,3.62,7.83,90881.15,908.4,0.0,0.0,0.0
21891,2,21891,46,3.46,8.60,4.0,0.5,0.-9,0.-10,3.62,7.84,90882.21,908.23,0.0,0.0,0.0
21937,2,21937,46,3.42,8.57,3.96,0.5,0.-9,0.-10,3.68,7.84,90887.61,908.23,0.0,0.0,0.0
21983,2,21983,46,3.44,8.66,4.6,0.5,0.-9,0.-9,3.62,7.84,90875.68,907.45,0.0,0.0,0.0
22029,2,22029,46,3.52,8.63,4.1,0.4,0.-9,0.-9,3.68,7.84,90884.38,907.84,0.0,0.0,0.0
22072,2,22072,43,3.59,8.59,4.1,0.5,0.-9,0.-10,3.68,7.83,90887.67,907.74,0.0,0.0,0.0
22118,2,22118,46,3.53,8.59,4.0,0.4,0.-9,0.-10,3.62,7.84,90882.21,907.65,0.0,0.0,0.0
22164,2,22164,46,3.52,8.59,4.0,0.4,0.-9,0.-9,3.62,7.84,90883.32,907.74,0.0,0.0,0.0
22210,2,22210,46,3.54,8.59,4.5,0.5,0.-9,0.-10,3.62,7.84,90888.73,906.96,0.0,0.0,0.0
22261,2,22261,51,3.42,8.60,4.3,0.5,0.-8,0.-10,3.62,7.84,90884.38,907.35,0.0,0.0,0.0
22307,2,22307,46,3.52,8.59,3.98,0.4,0.-9,0.-9,3.62,7.84,90883.32,907.93,0.0,0.0,0.0
22350,2,22350,43,3.51,8.53,4.7,0.4,0.-9,0.-9,3.62,7.84,90883.32,907.64,0.0,0.0,0.0
22396,2,22396,46,3.51,8.57,4.0,0.5,0.-9,0.-10,3.75,7.85,90882.27,907.94,0.0,0.0,0.0
22443,2,22443,47,3.37,8.65,3.99,0.5,0.-8,0.-9,3.68,7.84,90891.96,907.84,0.0,0.0,0.0
22489,2,22489,46,3.44,8.61,4.8,0.5,0.-9,0.-8,3.68,7.84,90883.32,907.65,0.0,0.0,0.0
22535,2,22535,46,3.47,8.58,3.90,0.5,0.-7,0.-10,3.68,7.85,90886.50,907.85,0.0,0.0,0.0
22581,2,22581,46,3.46,8.61,3.98,0.4,0.-9,0.-10,3.81,7.84,90883.32,907.64,0.0,0.0,0.0
22624,2,22624,43,3.43,8.57,3.93,0.5,0.-9,0.-10,3.68,7.83,90882.27,908.14,0.0,0.0,0.0
22670,2,22670,46,3.56,8.63,4.0,0.4,0.-8,0.-10,3.68,7.84,90884.38,907.75,0.0,0.0,0.0
22716,2,22716,46,3.43,8.60,3.99,0.4,0.-9,0.-11,3.75,7.85,90890.84,907.45,0.0,0.0,0.0
22767,2,22767,51,3.39,8.61,4.4,0.4,0.-9,0.-9,3.68,7.83,90880.3,907.65,0.0,0.0,0.0
22813,2,22813,46,3.45,8.63,4.9,0.4,0.-9,0.-9,3.62,7.84,90882.21,908.4,0.0,0.0,0.0
22859,2,22859,46,3.41,8.59,3.99,0.5,0.-9,0.-10,3.62,7.84,90878.97,907.94,0.0,0.0,0.0
22902,2,22902,43,3.46,8.61,4.11,0.4,0.-10,0.-9,3.68,7.84,90881.15,907.93,0.0,0.0,0.0
22948,2,22948,46,3.44,8.58,4.0,0.5,0.-9,0.-10,3.68,7.85,90887.61,907.55,0.0,0.0,0.0
22994,2,22994,46,3.50,8.59,4.3,0.5,0.-9,0.-10,3.62,7.84,90885.50,907.74,0.0,0.0,0.0
23040,2,23040,46,3.34,8.61,4.9,0.5,0.-9,0.-9,3.75,7.84,90883.26,907.85,0.0,0.0,0.0
23086,2,23086,46,3.44,8.61,3.97,0.6,0.-10,0.-7,3.75,7.85,90894.7,907.35,0.0,0.0,0.0
23132,2,23132,46,3.61,8.60,4.1,0.5,0.-8,0.-10,3.68,7.84,90880.3,908.63,0.0,0.0,0.0
23176,2,23176,44,3.38,8.64,3.97,0.5,0.-8,0.-10,3.68,7.84,90887.61,907.55,0.0,0.0,0.0
23222,2,23222,46,3.48,8.61,4.1,0.5,0.-8,0.-10,3.62,7.85,90887.61,907.65,0.0,0.0,0.0
23282,2,23282,60,3.41,8.62,3.99,0.5,0.-7,0.-10,3.68,7.84,90881.15,908.73,0.0,0.0,0.0
23328,2,23328,46,3.44,8.60,4.10,0.4,0.-9,0.-10,3.68,7.83,90888.73,907.84,0.0,0.0,0.0
23374,2,23374,46,3.26,8.60,4.8,0.5,0.-9,0.-9,3.75,7.85,90882.21,907.94,0.0,0.0,0.0
23420,2,23420,46,3.49,8.59,3.91,0.6,0.-9,0.-7,3.62,7.83,90880.9,907.65,0.0,0.0,0.0
23464,2,23464,44,3.51,8.60,3.87,0.4,0.-9,0.-8,3.62,7.84,90885.50,907.94,0.0,0.0,0.0
23510,2,23510,46,3.53,8.59,4.16,0.5,0.-9,0.-9,3.62,7.84,90893.1,908.23,0.0,0.0,0.0
23556,2,23556,46,3.29,8.64,3.96,0.7,0.-5,0.-10,3.62,7.84,90888.67,908.4,0.0,0.0,0.0
23602,2,23602,46,3.33,8.62,3.92,0.5,0.-8,0.-8,3.62,7.84,90883.26,907.55,0.0,0.0,0.0
23648,2,23648,46,3.53,8.60,4.3,0.5,0.-9,0.-9,3.68,7.85,90885.43,908.14,0.0,0.0,0.0
23694,2,23694,46,3.56,8.66,3.93,0.4,0.-9,0.-9,3.62,7.85,90884.38,907.55,0.0,0.0,0.0
23737,2,23737,43,3.55,8.58,3.99,0.4,0.-9,0.-9,3.68,7.84,90885.43,907.75,0.0,0.0,0.0
23789,2,23789,52,3.48,8.65,3.93,0.4,0.-8,0.-11,3.62,7.84,90889.78,908.4,0.0,0.0,0.0
23835,2,23835,46,3.40,8.59,4.8,0.3,0.-10,0.-11,3.62,7.84,90882.14,907.95,0.0,0.0,0.0
23881,2,23881,46,3.33,8.62,3.94,0.4,0.-10,0.-9,3.68,7.85,90881.3,907.95,0.0,0.0,0.0
23927,2,23927,46,3.50,8.63,3.95,0.4,0.-9,0.-9,3.62,7.84,90878.92,907.95,0.0,0.0,0.0
23973,2,23973,46,3.51,8.61,3.91,0.4,0.-9,0.-11,3.62,7.85,90886.50,907.36,0.0,0.0,0.0
24016,2,24016,43,3.51,8.60,4.1,0.2,0.-9,0.-11,3.62,7.84,90888.67,907.75,0.0,0.0,0.0
24062,2,24062,46,3.37,8.62,4.1,0.3,0.-10,0.-11,3.62,7.85,90883.26,907.85,0.0,0.0,0.0
24108,2,24108,46,3.41,8.60,4.17,0.3,0.-11,0.-10,3.62,7.86,90887.55,908.5,0.0,0.0,0.0
24154,2,24154,46,3.45,8.59,3.91,0.5,0.-9,0.-8,3.68,7.85,90882.14,907.65,0.0,0.0,0.0
24200,2,24200,46,3.49,8.56,4.3,0.3,0.-9,0.-9,3.62,7.85,90883.21,908.14,0.0,0.0,0.0
24246,2,24246,46,3.50,8.56,4.6,0.5,0.-9,0.-10,3.62,7.84,90889.78,908.5,0.0,0.0,0.0
24294,2,24294,48,3.42,8.62,3.93,0.4,0.-8,0.-10,3.68,7.84,90888.73,907.55,0.0,0.0,0.0
24340,2,24340,46,3.38,8.58,4.14,0.4,0.-9,0.-10,3.68,7.86,90885.38,907.55,0.0,0.0,0.0
24386,2,24386,46,3.36,9.77,3.99,0.5,0.-9,0.-9,3.68,7.85,90884.32,907.95,0.0,0.0,0.0
24432,2,24432,46,3.50,8.65,3.92,0.5,0.-9,0.-9,3.62,7.86,90876.68,907.95,0.0,0.0,0.0
24479,2,24479,47,3.57,8.59,4.2,0.5,0.-9,0.-10,3.62,7.85,90892.96,907.45,0.0,0.0,0.0
24525,2,24525,46,3.50,8.60,3.97,0.5,0.-9,0.-11,3.62,7.85,90886.50,907.36,0.0,0.0,0.0
24568,2,24568,43,3.34,8.58,4.6,0.4,0.-9,0.-10,3.68,7.85,90886.43,907.75,0.0,0.0,0.0
24614,2,24614,46,3.43,8.58,4.4,0.5,0.-10,0.-9,3.62,7.85,90881.3,907.26,0.0,0.0,0.0
24660,2,24660,46,3.48,8.57,3.98,0.4,0.-9,0.-9,3.68,7.85,90890.78,907.85,0.0,0.0,0.0
24706,2,24706,46,3.58,8.57,4.3,0.5,0.-9,0.-10,3.68,7.86,90881.3,907.66,0.0,0.0,0.0
24752,2,24752,46,3.50,8.58,3.99,0.5,0.-8,0.-10,3.68,7.86,90883.21,908.15,0.0,0.0,0.0
24803,2,24803,51,3.35,8.60,4.2,0.4,0.-8,0.-10,3.62,7.86,90884.38,907.85,0.0,0.0,0.0
24846,2,24846,43,3.38,8.61,4.9,0.5,0.-10,0.-8,3.68,7.85,90886.50,907.65,0.0,0.0,0.0
24892,2,24892,46,3.51,8.61,3.94,0.5,0.-9,0.-8,3.62,7.85,90890.78,907.65,0.0,0.0,0.0
24938,2,24938,46,3.46,8.58,4.1,0.4,0.-8,0.-9,3.68,7.86,90886.43,907.36,0.0,0.0,0.0
24984,2,24984,46,3.54,8.54,3.98,0.5,0.-9,0.-10,3.75,7.85,90885.38,907.56,0.0,0.0,0.0
25030,2,25030,46,3.39,8.59,4.0,0.4,0.-8,0.-10,3.68,7.86,90888.60,908.54,0.0,0.0,0.0
25076,2,25076,46,3.35,8.62,4.6,0.4,0.-9,0.-10,3.68,7.86,90882.14,907.86,0.0,0.0,0.0
25119,2,25119,43,3.34,8.60,4.4,0.5,0.-9,0.-8,3.68,7.86,90888.60,907.75,0.0,0.0,0.0
25165,2,25165,46,3.62,8.56,3.92,0.5,0.-8,0.-8,3.62,7.86,90883.14,907.95,0.0,0.0,0.0
25211,2,25211,46,3.41,8.61,3.96,0.5,0.-8,0.-10,3.62,7.87,90883.14,908.44,0.0,0.0,0.0
25257,2,25257,46,3.35,8.61,3.96,0.5,0.-9,0.-9,3.62,7.85,90889.66,907.75,0.0,0.0,0.0
25308,2,25308,51,3.47,8.56,4.4,0.4,0.-10,0.-9,3.62,7.86,90884.26,907.16,0.0,0.0,0.0
25354,2,25354,46,3.49,8.57,4.6,0.5,0.-9,0.-9,3.62,7.86,90882.14,907.45,0.0,0.0,0.0
25399,2,25399,45,3.49,8.56,4.0,0.5,0.-8,0.-10,3.68,7.85,90884.32,907.65,0.0,0.0,0.0
25445,2,25445,46,3.36,8.61,4.4,0.5,0.-8,0.-10,3.62,7.86,90885.38,908.5,0.0,0.0,0.0
25492,2,25492,47,3.39,8.59,3.95,0.6,0.-9,0.-8,3.68,7.86,90885.32,908.35,0.0,0.0,0.0
25538,2,25538,46,3.48,8.56,3.99,0.4,0.-9,0.-9,3.68,7.85,90886.37,908.15,0.0,0.0,0.0
25584,2,25584,46,3.57,8.60,4.2,0.4,0.-9,0.-8,3.68,7.86,90883.21,907.56,0.0,0.0,0.0
25630,2,25630,46,3.54,8.56,3.97,0.5,0.-8,0.-11,3.62,7.86,90890.78,907.85,0.0,0.0,0.0
25673,2,25673,43,3.35,8.61,3.98,0.4,0.-9,0.-11,3.68,7.85,90886.43,907.65,0.0,0.0,0.0
25719,2,25719,46,3.37,8.60,4.8,0.5,0.-10,0.-9,3.68,7.86,90884.20,908.5,0.0,0.0,0.0
25765,2,25765,46,3.58,8.59,3.85,0.7,0.-8,0.-9,3.68,7.85,90883.14,907.76,0.0,0.0,0.0
25826,2,25826,61,3.46,8.60,4.8,0.4,0.-9,0.-10,3.62,7.85,90883.21,907.75,0.0,0.0,0.0
25872,2,25872,46,3.47,8.59,3.98,0.4,0.-8,0.-10,3.62,7.85,90888.60,907.95,0.0,0.0,0.0
25918,2,25918,46,3.26,8.62,4.3,0.4,0.-9,0.-10,3.68,7.85,90882.14,908.14,0.0,0.0,0.0
25961,2,25961,43,3.48,8.61,4.7,0.5,0.-11,0.-9,3.68,7.85,90886.43,908.5,0.0,0.0,0.0
26007,2,26007,46,3.58,8.65,3.94,0.5,0.-9,0.-8,3.68,7.86,90887.55,907.66,0.0,0.0,0.0
26053,2,26053,46,3.50,8.60,4.8,0.5,0.-8,0.-10,3.62,7.87,90883.21,907.26,0.0,0.0,0.0
26099,2,26099,46,3.43,8.57,4.0,0.5,0.-8,0.-10,3.68,7.87,90887.49,907.86,0.0,0.0,0.0
26145,2,26145,46,3.51,8.61,4.2,0.4,0.-8,0.-10,3.56,7.86,90885.25,907.86,0.0,0.0,0.0
26191,2,26191,46,3.45,8.58,4.6,0.4,0.-9,0.-9,3.62,7.86,90885.43,907.95,0.0,0.0,0.0
26247,2,26247,56,3.57,8.54,3.85,0.5,0.-9,0.-9,3.68,7.85,90884.32,908.5,0.0,0.0,0.0
26293,2,26293,46,3.59,8.62,4.1,0.4,0.-8,0.-10,3.62,7.86,90890.78,907.26,0.0,0.0,0.0
26346,2,26346,53,3.44,8.59,3.96,0.4,0.-8,0.-11,3.62,7.85,90883.26,907.95,0.0,0.0,0.0
26392,2,26392,46,3.27,8.59,4.8,0.3,0.-11,0.-10,3.62,7.85,90884.26,908.15,0.0,0.0,0.0
26438,2,26438,46,3.46,8.57,4.6,0.4,0.-11,0.-7,3.68,7.87,90883.14,907.75,0.0,0.0,0.0
26484,2,26484,46,3.65,8.60,3.85,0.5,0.-9,0.-9,3.56,7.86,90882.9,908.5,0.0,0.0,0.0
26528,2,26528,44,3.55,8.60,4.1,0.4,0.-8,0.-10,3.75,7.86,90883.21,908.15,0.0,0.0,0.0
26574,2,26574,46,3.46,8.60,3.93,0.4,0.-8,0.-12,3.68,7.86,90886.43,907.17,0.0,0.0,0.0
26620,2,26620,46,3.26,8.60,4.13,0.4,0.-10,0.-10,3.62,7.86,90882.3,907.66,0.0,0.0,0.0
26666,2,26666,46,3.50,8.60,4.2,0.5,0.-9,0.-8,3.68,7.87,90883.14,907.7,0.0,0.0,0.0
26712,2,26712,46,3.46,8.59,3.90,0.5,0.-9,0.-9,3.68,7.87,90882.3,908.26,0.0,0.0,0.0
26758,2,26758,46,3.40,8.62,4.8,0.4,0.-9,0.-10,3.68,7.87,90887.49,908.5,0.0,0.0,0.0
26801,2,26801,43,3.44,8.59,3.98,0.5,0.-9,0.-10,3.68,7.87,90892.89,908.15,0.0,0.0,0.0
26852,2,26852,51,3.42,8.62,4.2,0.4,0.-9,0.-10,3.68,7.87,90889.66,907.66,0.0,0.0,0.0
26898,2,26898,46,3.52,8.57,4.5,0.5,0.-10,0.-9,3.68,7.87,90893.95,908.35,0.0,0.0,0.0
26944,2,26944,46,3.57,8.58,3.93,0.4,0.-9,0.-9,3.68,7.87,90884.20,908.5,0.0,0.0,0.0
26990,2,26990,46,3.53,8.55,4.0,0.5,0.-9,0.-10,3.75,7.88,90884.14,907.96,0.0,0.0,0.0
27036,2,27036,46,3.35,8.65,4.1,0.5,0.-8,0.-10,3.68,7.87,90885.20,907.86,0.0,0.0,0.0
27079,2,27079,43,3.34,8.64,4.5,0.5,0.-9,0.-8,3.68,7.87,90888.49,907.66,0.0,0.0,0.0
27125,2,27125,46,3.56,8.58,3.97,0.5,0.-10,0.-8,3.68,7.87,90885.25,907.96,0.0,0.0,0.0
27171,2,27171,46,3.49,8.57,4.1,0.4,0.-8,0.-9,3.75,7.87,90886.32,908.6,0.0,0.0,0.0
27217,2,27217,46,3.53,8.60,4.3,0.4,0.-8,0.-10,3.75,7.87,90883.8,907.47,0.0,0.0,0.0
27263,2,27263,46,3.29,8.65,4.9,0.5,0.-9,0.-10,3.75,7.87,90886.32,907.67,0.0,0.0,0.0
27309,2,27309,46,3.36,8.64,4.6,0.5,0.-9,0.-8,3.68,7.87,90880.91,907.18,0.0,0.0,0.0
27359,2,27359,50,3.38,8.60,3.95,0.6,0.-8,0.-8,3.68,7.87,90879.79,907.86,0.0,0.0,0.0
27405,2,27405,46,3.58,8.62,4.2,0.4,0.-9,0.-10,3.75,7.87,90878.74,907.56,0.0,0.0,0.0
27451,2,27451,46,3.50,8.57,4.2,0.4,0.-8,0.-12,3.75,7.87,90884.14,908.75,0.0,0.0,0.0
27497,2,27497,46,3.34,8.60,3.96,0.3,0.-9,0.-11,3.75,7.88,90887.37,908.16,0.0,0.0,0.0
27544,2,27544,47,3.34,8.60,4.20,0.3,0.-11,0.-9,3.68,7.88,90881.96,907.86,0.0,0.0,0.0
27590,2,27590,46,3.52,8.60,3.97,0.6,0.-9,0.-8,3.75,7.88,90876.50,907.87,0.0,0.0,0.0
27638,2,27638,48,3.53,8.56,3.93,0.4,0.-8,0.-11,3.68,7.87,90883.2,907.86,0.0,0.0,0.0
27684,2,27684,46,3.36,8.64,4.4,0.4,0.-8,0.-11,3.68,7.88,90884.8,907.76,0.0,0.0,0.0
27730,2,27730,46,3.35,8.66,4.6,0.4,0.-8,0.-11,3.75,7.87,90883.8,908.6,0.0,0.0,0.0
27776,2,27776,46,3.36,8.59,4.14,0.4,0.-10,0.-9,3.68,7.88,90883.2,909.5,0.0,0.0,0.0
27822,2,27822,46,3.58,8.56,3.98,0.5,0.-10,0.-8,3.75,7.88,90886.25,907.96,0.0,0.0,0.0
27882,2,27882,60,3.48,8.59,4.10,0.5,0.-8,0.-10,3.68,7.87,90882.9,908.15,0.0,0.0,0.0
27925,2,27925,43,3.40,8.60,3.98,0.6,0.-7,0.-11,3.75,7.87,90883.8,907.66,0.0,0.0,0.0
27971,2,27971,46,3.39,8.67,4.3,0.4,0.-9,0.-8,3.68,7.88,90889.54,908.45,0.0,0.0,0.0
28017,2,28017,46,3.57,8.61,3.98,0.5,0.-9,0.-9,3.75,7.87,90888.42,907.86,0.0,0.0,0.0
28063,2,28063,46,3.56,8.61,4.4,0.4,0.-7,0.-10,3.68,7.87,90885.20,907.76,0.0,0.0,0.0
28109,2,28109,46,3.46,8.67,4.0,0.4,0.-8,0.-11,3.75,7.87,90886.25,908.75,0.0,0.0,0.0
28155,2,28155,46,3.42,8.59,3.98,0.2,0.-10,0.-13,3.75,7.88,90887.37,908.26,0.0,0.0,0.0
28204,2,28204,49,3.25,8.63,4.15,0.2,0.-10,0.-11,3.68,7.87,90889.54,907.96,0.0,0.0,0.0
28250,2,28250,46,3.38,8.58,4.13,0.7,0.-9,0.-7,3.75,7.88,90885.20,907.57,0.0,0.0,0.0
28296,2,28296,46,3.71,8.59,3.88,0.6,0.-8,0.-8,3.75,7.88,90878.67,907.97,0.0,0.0,0.0
28342,2,28342,46,3.46,8.61,3.96,0.4,0.-8,0.-10,3.68,7.88,90891.71,907.96,0.0,0.0,0.0
28394,2,28394,52,3.40,8.58,4.14,0.4,0.-9,0.-9,3.68,7.87,90883.2,907.96,0.0,0.0,0.0
28440,2,28440,46,3.38,8.62,4.3,0.5,0.-10,0.-9,3.75,7.88,90889.54,907.38,0.0,0.0,0.0
28489,2,28489,49,3.49,8.59,3.95,0.5,0.-9,0.-8,3.68,7.87,90883.2,907.96,0.0,0.0,0.0
28535,2,28535,46,3.51,8.57,4.6,0.5,0.-8,0.-10,3.75,7.88,90884.8,908.6,0.0,0.0,0.0
28582,2,28582,47,3.35,8.63,3.92,0.5,0.-7,0.-11,3.75,7.88,90884.8,907.67,0.0,0.0,0.0
28628,2,28628,46,3.23,8.61,4.13,0.4,0.-10,0.-10,3.75,7.88,90884.8,908.27,0.0,0.0,0.0
28674,2,28674,46,3.38,8.62,4.6,0.6,0.-10,0.-8,3.68,7.88,90890.60,908.17,0.0,0.0,0.0
28720,2,28720,46,3.54,8.59,4.3,0.4,0.-8,0.-10,3.68,7.89,90880.85,908.36,0.0,0.0,0.0
28769,2,28769,49,3.39,8.59,4.1,0.4,0.-9,0.-11,3.68,7.89,90884.14,907.77,0.0,0.0,0.0
28815,2,28815,46,3.43,8.63,3.99,0.4,0.-8,0.-10,3.75,7.89,90886.19,907.77,0.0,0.0,0.0
28861,2,28861,46,3.49,8.57,4.5,0.5,0.-10,0.-8,3.75,7.89,90884.2,908.66,0.0,0.0,0.0
28912,2,28912,51,3.52,8.59,4.0,0.6,0.-9,0.-8,3.68,7.89,90886.25,907.87,0.0,0.0,0.0
28958,2,28958,46,3.46,8.60,3.99,0.4,0.-8,0.-10,3.62,7.88,90885.14,907.77,0.0,0.0,0.0
29004,2,29004,46,3.47,8.57,4.1,0.5,0.-8,0.-11,3.75,7.88,90886.32,907.87,0.0,0.0,0.0
29053,2,29053,49,3.50,8.33,4.5,0.4,0.-9,0.-11,3.75,7.88,90887.31,908.7,0.0,0.0,0.0
29099,2,29099,46,3.44,8.62,4.1,0.5,0.-10,0.-8,3.68,7.89,90881.85,907.57,0.0,0.0,0.0
29145,2,29145,46,3.51,8.55,3.99,0.5,0.-10,0.-9,3.68,7.89,90886.19,907.67,0.0,0.0,0.0
29191,2,29191,46,3.52,8.58,4.0,0.4,0.-8,0.-9,3.62,7.89,90876.44,907.58,0.0,0.0,0.0
29237,2,29237,46,3.52,8.60,3.90,0.5,0.-8,0.-11,3.68,7.89,90886.19,907.58,0.0,0.0,0.0
29283,2,29283,46,3.57,8.58,3.82,0.2,0.-8,0.-12,3.75,7.89,90885.7,907.38,0.0,0.0,0.0
29332,2,29332,49,3.23,8.63,4.34,0.1,0.-10,0.-12,3.75,7.89,90888.42,907.77,0.0,0.0,0.0
29378,2,29378,46,3.53,8.58,4.19,0.6,0.-9,0.-8,3.75,7.89,90888.42,907.48,0.0,0.0,0.0
29429,2,29429,51,3.58,8.59,3.72,0.5,0.-7,0.-10,3.75,7.88,90886.25,907.57,0.0,0.0,0.0
29475,2,29475,46,3.43,8.58,4.16,0.2,0.-12,0.-13,3.81,7.89,90887.31,907.77,0.0,0.0,0.0
29521,2,29521,46,3.11,8.61,4.10,0.3,0.-10,0.-11,3.68,7.89,90878.61,907.48,0.0,0.0,0.0
29567,2,29567,46,3.46,8.60,4.5,0.5,0.-9,0.-6,3.68,7.89,90887.31,907.58,0.0,0.0,0.0
29617,2,29617,50,3.68,8.56,3.85,0.3,0.-9,0.-10,3.75,7.89,90882.96,907.87,0.0,0.0,0.0
29663,2,29663,46,3.70,8.53,4.10,0.1,0.-11,0.-15,3.75,7.90,90887.31,908.7,0.0,0.0,0.0
29709,2,29709,46,2.97,8.68,4.0,0.0,0.-13,0.-15,3.75,7.89,90889.42,907.67,0.0,0.0,0.0
29755,2,29755,46,3.19,8.58,4.45,0.4,0.-10,0.-7,3.68,7.88,90884.2,908.7,0.0,0.0,0.0
29801,2,29801,46,3.39,8.70,3.90,0.10,0.-4,0.-2,3.75,7.90,90882.96,907.68,0.0,0.0,0.0
29847,2,29847,46,3.72,8.55,3.83,0.4,0.-9,0.-9,3.68,7.90,90877.50,908.17,0.0,0.0,0.0
29897,2,29897,50,3.55,8.55,4.17,0.2,0.-8,0.-12,3.75,7.90,90889.42,907.38,0.0,0.0,0.0
29958,2,29958,61,3.26,8.63,3.97,0.3,0.-10,0.-16,3.75,7.88,90883.2,907.96,0.0,0.0,0.0
30004,2,30004,46,3.11,8.63,4.33,0.2,0.-11,0.-8,3.81,7.88,90881.90,907.57,0.0,0.0,0.0
30050,2,30050,46,3.46,8.53,4.3,0.6,0.-9,0.-5,3.81,7.89,90882.96,908.7,0.0,0.0,0.0
30096,2,30096,46,3.76,8.51,4.7,0.4,0.-7,0.-7,3.81,7.90,90878.61,908.17,0.0,0.0,0.0
30142,2,30142,46,3.45,8.57,4.5,0.3,0.-9,0.-12,3.75,7.89,90885.14,908.8,0.0,0.0,0.0
30191,2,30191,49,3.61,8.59,4.0,0.3,0.-10,0.-15,3.81,7.90,90885.14,907.78,0.0,0.0,0.0
30237,2,30237,46,2.65,8.67,4.22,0.1,0.-12,0.-9,3.75,7.90,90882.96,907.78,0.0,0.0,0.0
30283,2,30283,46,3.81,8.47,4.51,0.7,0.-9,0.-3,3.68,7.90,90884.2,907.88,0.0,0.0,0.0
30329,2,30329,46,3.58,8.59,3.71,0.8,0.-5,0.-6,3.75,7.90,90887.31,908.47,0.0,0.0,0.0
30375,2,30375,46,3.67,8.55,3.93,0.4,0.-7,0.-10,3.75,7.90,90883.96,908.27,0.0,0.0,0.0
30421,2,30421,46,3.40,8.56,4.5,0.0,0.-13,0.-15,3.68,7.89,90882.90,907.78,0.0,0.0,0.0
30476,2,30476,55,2.94,8.58,4.27,0.4,0.-9,0.-9,3.68,7.90,90888.36,908.57,0.0,0.0,0.0
30522,2,30522,46,3.52,8.52,4.36,0.7,0.-7,0.-3,3.68,7.90,90888.36,908.8,0.0,0.0,0.0
30568,2,30568,46,3.74,8.52,3.74,0.8,0.-6,0.-8,3.68,7.89,90882.90,907.88,0.0,0.0,0.0
30614,2,30614,46,3.54,8.56,3.97,0.1,0.-11,0.-11,3.75,7.90,90885.7,907.78,0.0,0.0,0.0
30661,2,30661,47,3.31,8.50,4.26,0.1,0.-11,0.-12,3.68,7.90,90887.25,907.88,0.0,0.0,0.0
30707,2,30707,46,3.27,8.57,4.23,0.6,0.-9,0.-9,3.75,7.91,90885.7,907.48,0.0,0.0,0.0
30756,2,30756,49,3.52,8.58,3.94,0.6,0.-6,0.-7,3.75,7.90,90876.44,907.58,0.0,0.0,0.0
30802,2,30802,46,3.54,8.56,4.1,0.5,0.-8,0.-9,3.75,7.90,90880.73,908.17,0.0,0.0,0.0
30848,2,30848,46,3.33,8.61,3.94,0.3,0.-9,0.-10,3.68,7.91,90888.31,908.18,0.0,0.0,0.0
30894,2,30894,46,3.57,8.55,4.17,0.3,0.-10,0.-11,3.75,7.90,90885.7,907.88,0.0,0.0,0.0
30940,2,30940,46,3.20,8.59,4.16,0.5,0.-9,0.-10,3.75,7.90,90887.19,907.88,0.0,0.0,0.0
30991,2,30991,51,3.58,8.57,4.10,0.7,0.-5,0.-7,3.68,7.90,90885.7,907.68,0.0,0.0,0.0
31040,2,31040,49,3.43,8.58,4.1,0.6,0.-8,0.-10,3.75,7.89,90881.78,907.88,0.0,0.0,0.0
31086,2,31086,46,3.60,8.57,4.11,0.4,0.-8,0.-10,3.75,7.90,90885.7,907.49,0.0,0.0,0.0
31132,2,31132,46,3.22,8.63,3.93,0.2,0.-12,0.-14,3.68,7.90,90890.48,908.57,0.0,0.0,0.0
31178,2,31178,46,2.92,8.66,4.36,0.2,0.-11,0.-8,3.75,7.90,90886.14,908.18,0.0,0.0,0.0
31224,2,31224,46,3.59,8.54,4.8,0.9,0.-3,0.-3,3.75,7.91,90882.84,907.49,0.0,0.0,0.0
31270,2,31270,46,3.48,8.62,3.90,0.5,0.-8,0.-10,3.68,7.91,90885.2,907.49,0.0,0.0,0.0
31319,2,31319,49,3.60,8.56,4.4,0.3,0.-7,0.-13,3.75,7.90,90887.25,908.28,0.0,0.0,0.0
31365,2,31365,46,3.22,8.65,4.3,0.0,0.-15,0.-16,3.68,7.91,90887.19,907.49,0.0,0.0,0.0
31411,2,31411,46,2.94,8.59,4.43,0.4,0.-10,0.-8,3.68,7.90,90882.84,908.8,0.0,0.0,0.0
31457,2,31457,46,3.68,8.56,4.9,0.9,0.-1,0.-2,3.68,7.91,90878.50,907.68,0.0,0.0,0.0
31508,2,31508,51,3.51,8.56,3.92,0.6,0.-7,0.-11,3.75,7.90,90882.84,907.98,0.0,0.0,0.0
31554,2,31554,46,3.45,8.58,3.93,0.3,0.-8,0.-11,3.68,7.90,90885.2,908.37,0.0,0.0,0.0
31603,2,31603,49,3.20,8.59,4.20,0.2,0.-14,0.-12,3.68,7.90,90885.7,908.87,0.0,0.0,0.0
31649,2,31649,46,3.45,8.55,4.18,0.6,0.-9,0.-7,3.68,7.91,90887.25,908.18,0.0,0.0,0.0
31696,2,31696,47,3.61,8.59,3.82,0.6,0.-6,0.-8,3.75,7.91,90886.7,907.88,0.0,0.0,0.0
31742,2,31742,46,3.58,8.58,4.1,0.2,0.-9,0.-12,3.75,7.90,90888.25,907.69,0.0,0.0,0.0
31788,2,31788,46,3.31,8.65,4.1,0.1,0.-11,0.-13,3.75,7.91,90882.84,907.98,0.0,0.0,0.0
31834,2,31834,46,3.42,8.53,4.40,0.2,0.-12,0.-12,3.75,7.92,90882.84,908.38,0.0,0.0,0.0
31883,2,31883,49,2.95,8.68,4.5,0.6,0.-9,0.-8,3.68,7.92,90888.25,908.8,0.0,0.0,0.0
31929,2,31929,46,3.65,8.53,4.21,0.6,0.-7,0.-3,3.68,7.91,90882.78,907.59,0.0,0.0,0.0
31975,2,31975,46,3.73,8.54,3.92,0.8,0.-6,0.-8,3.75,7.92,90885.2,907.89,0.0,0.0,0.0
32026,2,32026,51,3.28,8.65,3.80,0.2,0.-10,0.-11,3.81,7.91,90888.25,907.58,0.0,0.0,0.0
32072,2,32072,46,3.43,8.52,4.37,0.2,0.-9,0.-8,3.68,7.91,90879.61,908.18,0.0,0.0,0.0
32118,2,32118,46,3.68,8.48,4.13,0.6,0.-9,0.-11,3.68,7.92,90886.7,907.88,0.0,0.0,0.0
32170,2,32170,52,3.25,8.67,3.90,0.6,0.-8,0.-14,3.75,7.91,90881.78,907.78,0.0,0.0,0.0
32216,2,32216,46,3.23,8.65,3.97,0.1,0.-11,0.-11,3.68,7.91,90887.19,907.79,0.0,0.0,0.0
32262,2,32262,46,3.24,8.61,4.34,0.5,0.-10,0.-5,3.62,7.91,90879.55,908.18,0.0,0.0,0.0
32308,2,32308,46,3.74,8.54,3.94,0.8,0.-4,0.-6,3.75,7.92,90886.7,907.59,0.0,0.0,0.0
32354,2,32354,46,3.60,8.59,4.1,0.3,0.-8,0.-12,3.75,7.91,90882.84,907.98,0.0,0.0,0.0
32400,2,32400,46,3.45,8.57,4.18,0.1,0.-12,0.-13,3.68,7.92,90882.78,908.48,0.0,0.0,0.0
32449,2,32449,49,3.19,8.63,4.6,0.2,0.-12,0.-13,3.68,7.91,90880.60,908.9,0.0,0.0,0.0
32495,2,32495,46,3.15,8.59,4.14,0.2,0.-11,0.-10,3.68,7.92,90879.55,907.98,0.0,0.0,0.0
32555,2,32555,60,3.45,8.53,4.12,0.6,0.-8,0.-8,3.68,7.91,90881.78,908.37,0.0,0.0,0.0
32601,2,32601,46,3.57,8.57,4.1,0.5,0.-8,0.-9,3.75,7.91,90887.19,908.28,0.0,0.0,0.0
32647,2,32647,46,3.44,8.57,4.15,0.4,0.-9,0.-11,3.68,7.92,90886.7,908.8,0.0,0.0,0.0
32693,2,32693,46,3.47,8.57,4.1,0.4,0.-9,0.-12,3.75,7.92,90884.96,907.98,0.0,0.0,0.0
32743,2,32743,50,3.1,8.62,4.18,0.3,0.-12,0.-12,3.68,7.91,90882.84,907.98,0.0,0.0,0.0
32789,2,32789,46,3.41,8.58,4.18,0.7,0.-7,0.-4,3.75,7.92,90881.72,907.59,0.0,0.0,0.0
32835,2,32835,46,3.65,8.58,3.99,0.8,0.-6,0.-8,3.75,7.92,90882.84,907.69,0.0,0.0,0.0
32881,2,32881,46,3.52,8.57,4.0,0.4,0.-7,0.-11,3.68,7.92,90884.96,907.89,0.0,0.0,0.0
32927,2,32927,46,3.21,8.59,4.10,0.3,0.-11,0.-14,3.68,7.92,90883.84,907.89,0.0,0.0,0.0
32973,2,32973,46,3.4,8.59,4.39,0.3,0.-11,0.-8,3.68,7.93,90882.78,908.9,0.0,0.0,0.0
33022,2,33022,49,3.52,8.56,4.20,0.9,0.-5,0.-5,3.81,7.93,90888.18,907.49,0.0,0.0,0.0
33073,2,33073,51,3.67,8.52,3.97,0.5,0.-9,0.-9,3.75,7.92,90888.18,908.9,0.0,0.0,0.0
33119,2,33119,46,3.29,8.56,4.15,0.5,0.-9,0.-9,3.75,7.92,90894.71,908.19,0.0,0.0,0.0
33165,2,33165,46,3.36,8.61,4.8,0.7,0.-5,0.-7,3.75,7.93,90886.1,908.9,0.0,0.0,0.0
33211,2,33211,46,3.39,8.58,4.0,0.7,0.-6,0.-6,3.68,7.93,90883.84,907.99,0.0,0.0,0.0
33257,2,33257,46,3.67,8.56,4.4,0.5,0.-8,0.-10,3.68,7.92,90889.25,908.19,0.0,0.0,0.0
33306,2,33306,49,3.38,8.57,3.94,0.3,0.-10,0.-13,3.75,7.93,90883.84,907.89,0.0,0.0,0.0
33352,2,33352,46,3.19,8.56,4.26,0.2,0.-11,0.-9,3.75,7.92,90887.13,907.89,0.0,0.0,0.0
33398,2,33398,46,3.36,8.60,4.5,0.6,0.-9,0.-8,3.75,7.92,90877.38,907.79,0.0,0.0,0.0
33444,2,33444,46,3.57,8.55,4.5,0.4,0.-8,0.-8,3.75,7.93,90891.42,907.70,0.0,0.0,0.0
33490,2,33490,46,3.64,8.60,4.12,0.4,0.-8,0.-11,3.75,7.93,90879.49,907.70,0.0,0.0,0.0
33536,2,33536,46,3.32,8.63,3.93,0.3,0.-13,0.-15,3.75,7.92,90891.42,908.58,0.0,0.0,0.0
33590,2,33590,54,3.14,8.62,4.25,0.3,0.-10,0.-9,3.68,7.92,90886.1,907.59,0.0,0.0,0.0
33636,2,33636,46,3.26,8.60,4.28,0.7,0.-9,0.-7,3.62,7.93,90890.36,908.68,0.0,0.0,0.0
33682,2,33682,46,3.74,8.57,3.95,0.8,0.-4,0.-5,3.75,7.92,90881.67,908.19,0.0,0.0,0.0
33728,2,33728,46,3.59,8.61,3.98,0.3,0.-9,0.-12,3.75,7.94,90881.67,907.10,0.0,0.0,0.0
33775,2,33775,47,3.34,8.63,4.13,0.1,0.-13,0.-14,3.75,7.93,90881.60,907.70,0.0,0.0,0.0
33821,2,33821,46,3.21,8.38,4.28,0.3,0.-11,0.-10,3.75,7.93,90881.67,907.80,0.0,0.0,0.0
33882,2,33882,61,3.50,8.53,4.14,0.7,0.-7,0.-5,3.81,7.92,90880.67,907.40,0.0,0.0,0.0
33928,2,33928,46,3.67,8.55,3.90,0.6,0.-7,0.-9,3.75,7.92,90884.96,907.59,0.0,0.0,0.0
33974,2,33974,46,3.58,8.58,4.1,0.3,0.-9,0.-12,3.75,7.92,90878.37,908.38,0.0,0.0,0.0
34020,2,34020,46,3.23,8.56,4.9,0.2,0.-13,0.-15,3.75,7.93,90883.84,907.89,0.0,0.0,0.0
34066,2,34066,46,3.14,8.60,4.34,0.3,0.-10,0.-9,3.68,7.93,90883.78,907.89,0.0,0.0,0.0
34118,2,34118,52,3.50,8.52,4.16,0.8,0.-6,0.-5,3.68,7.92,90886.7,907.59,0.0,0.0,0.0
34167,2,34167,49,3.80,8.55,3.85,0.6,0.-7,0.-9,3.75,7.92,90886.1,908.9,0.0,0.0,0.0
34213,2,34213,46,3.34,8.63,3.96,0.3,0.-11,0.-14,3.75,7.92,90883.84,907.89,0.0,0.0,0.0
34259,2,34259,46,3.17,8.60,4.26,0.2,0.-13,0.-12,3.75,7.93,90884.89,907.99,0.0,0.0,0.0
34305,2,34305,46,3.19,8.55,4.14,0.6,0.-9,0.-7,3.75,7.94,90880.55,907.50,0.0,0.0,0.0
34351,2,34351,46,3.49,7.36,3.99,0.8,0.-6,0.-5,3.75,7.94,90884.89,907.89,0.0,0.0,0.0
34397,2,34397,46,3.72,8.53,3.93,0.4,0.-8,0.-9,3.75,7.93,90880.49,907.80,0.0,0.0,0.0
34447,2,34447,50,3.42,8.57,3.98,0.3,0.-10,0.-14,3.75,7.93,90885.95,908.19,0.0,0.0,0.0
34493,2,34493,46,3.8,8.62,4.15,0.1,0.-12,0.-12,3.75,7.93,90882.72,907.90,0.0,0.0,0.0
34539,2,34539,46,3.14,8.60,4.26,0.5,0.-10,0.-7,3.68,7.93,90880.55,907.40,0.0,0.0,0.0
34585,2,34585,46,3.71,8.53,3.98,0.7,0.-5,0.-6,3.75,7.94,90890.30,908.9,0.0,0.0,0.0
34646,2,34646,61,3.49,8.61,3.91,0.2,0.-10,0.-13,3.75,7.92,90889.30,908.38,0.0,0.0,0.0
34692,2,34692,46,3.32,8.60,4.15,0.1,0.-13,0.-15,3.75,7.92,90883.84,908.19,0.0,0.0,0.0
34741,2,34741,49,3.7,8.61,4.38,0.4,0.-10,0.-9,3.75,7.94,90884.96,908.9,0.0,0.0,0.0
34788,2,34788,47,3.35,7.35,4.9,0.8,0.-7,0.-4,3.81,7.93,90883.78,907.99,0.0,0.0,0.0
34834,2,34834,46,3.68,8.55,3.87,0.8,0.-5,0.-6,3.68,7.94,90881.60,907.60,0.0,0.0,0.0
34880,2,34880,46,3.65,8.54,4.15,0.3,0.-8,0.-10,3.75,7.94,90890.24,907.99,0.0,0.0,0.0
34926,2,34926,46,3.51,8.56,3.99,0.3,0.-10,0.-15,3.75,7.94,90884.83,908.19,0.0,0.0,0.0
34972,2,34972,46,2.93,8.62,4.27,0.1,0.-13,0.-12,3.81,7.94,90882.66,908.59,0.0,0.0,0.0
35021,2,35021,49,3.30,8.59,4.34,0.7,0.-8,0.-5,3.75,7.93,90890.30,908.39,0.0,0.0,0.0
35067,2,35067,46,3.68,8.57,3.96,0.9,0.-3,0.-5,3.75,7.94,90881.54,908.19,0.0,0.0,0.0
35113,2,35113,46,3.71,8.48,3.93,0.4,0.-8,0.-12,3.75,7.93,90880.49,907.51,0.0,0.0,0.0
35165,2,35165,52,3.26,8.63,4.12,0.0,0.-13,0.-16,3.75,7.93,90881.60,907.80,0.0,0.0,0.0
35211,2,35211,46,3.0,8.59,4.36,0.2,0.-13,0.-12,3.75,7.93,90884.83,908.20,0.0,0.0,0.0
35257,2,35257,46,3.12,8.60,4.23,0.8,0.-7,0.-4,3.75,7.94,90885.95,908.9,0.0,0.0,0.0
35306,2,35306,49,3.75,8.54,4.0,0.9,0.-2,0.-4,3.75,7.94,90892.41,907.90,0.0,0.0,0.0
35352,2,35352,46,3.66,8.56,3.88,0.5,0.-8,0.-10,3.81,7.93,90890.24,907.90,0.0,0.0,0.0
35398,2,35398,46,3.55,8.19,4.8,0.2,0.-10,0.-14,3.75,7.94,90888.7,907.99,0.0,0.0,0.0
35444,2,35444,46,3.7,8.58,4.25,0.1,0.-13,0.-13,3.75,7.94,90885.89,908.20,0.0,0.0,0.0
35490,2,35490,46,3.15,8.57,4.37,0.5,0.-9,0.-8,3.81,7.94,90886.95,907.11,0.0,0.0,0.0
35536,2,35536,46,3.54,8.55,4.2,0.9,0.-3,0.-4,3.75,7.94,90886.95,908.40,0.0,0.0,0.0
35585,2,35585,49,3.68,8.59,3.88,0.4,0.-9,0.-11,3.75,7.94,90883.78,907.51,0.0,0.0,0.0
35631,2,35631,46,3.32,8.58,4.0,0.0,0.-13,0.-14,3.75,7.95,90878.31,908.20,0.0,0.0,0.0
35682,2,35682,51,3.8,8.59,4.39,0.1,0.-12,0.-11,3.81,7.94,90888.7,908.0,0.0,0.0,0.0
35728,2,35728,46,3.23,8.56,4.35,0.6,0.-9,0.-7,3.75,7.94,90890.24,907.61,0.0,0.0,0.0
35774,2,35774,46,3.62,8.58,3.85,0.8,0.-5,0.-6,3.68,7.95,90889.12,907.51,0.0,0.0,0.0
35821,2,35821,47,3.29,8.61,4.10,0.3,0.-11,0.-10,3.75,7.94,90881.54,908.40,0.0,0.0,0.0
35870,2,35870,49,3.23,8.58,4.32,0.4,0.-10,0.-7,3.75,7.94,90886.95,908.0,0.0,0.0,0.0
35916,2,35916,46,3.11,8.59,4.51,0.11,0.-6,0.-4,3.68,7.94,90886.95,907.90,0.0,0.0,0.0
35962,2,35962,46,3.91,8.47,4.2,0.17,0.1,0.1,3.75,7.94,90876.14,907.70,0.0,0.0,0.0
36008,2,36008,46,3.68,8.56,3.52,0.5,0.-9,0.-9,3.81,7.95,90882.60,908.59,0.0,0.0,0.0
36054,2,36054,46,3.42,8.58,4.14,0.0,0.-9,0.-11,3.75,7.95,90882.66,908.0,0.0,0.0,0.0
36100,2,36100,46,3.48,8.54,4.39,0.4,0.-8,0.-10,3.75,7.95,90881.54,907.61,0.0,0.0,0.0
36149,2,36149,49,3.39,8.59,3.79,0.7,0.-10,0.-6,3.75,7.95,90882.60,908.10,0.0,0.0,0.0
36200,2,36200,51,4.15,8.54,3.50,0.0,0.-7,0.-13,3.81,7.94,90886.95,907.71,0.0,0.0,0.0
36246,2,36246,46,2.52,8.70,4.33,0.-5,0.-22,0.-20,3.75,7.94,90884.78,908.10,0.0,0.0,0.0
36292,2,36292,46,3.45,8.50,4.36,0.2,0.-9,0.-6,3.81,7.94,90880.42,908.10,0.0,0.0,0.0
36338,2,36338,46,3.98,8.50,4.1,0.0,0.-9,0.-12,3.87,7.95,90880.42,907.51,0.0,0.0,0.0
36384,2,36384,46,2.91,8.65,4.21,0.2,0.-13,0.-15,3.81,7.95,90886.89,908.30,0.0,0.0,0.0
36433,2,36433,49,3.72,8.52,3.91,0.0,0.-9,0.-10,3.81,7.95,90878.31,907.90,0.0,0.0,0.0
36479,2,36479,46,3.17,8.54,4.80,0.3,0.-13,0.-13,3.87,7.94,90885.89,907.41,0.0,0.0,0.0
36525,2,36525,46,3.49,8.54,3.98,0.12,0.-1,0.-8,3.81,7.94,90879.31,907.61,0.0,0.0,0.0
36571,2,36571,46,3.47,8.61,3.72,0.6,0.-8,0.-12,3.87,7.94,90884.78,908.40,0.0,0.0,0.0
36617,2,36617,46,3.39,8.60,4.23,0.3,0.-10,0.-9,3.81,7.95,90890.12,908.10,0.0,0.0,0.0
36663,2,36663,46,3.73,8.57,3.85,0.3,0.-9,0.-10,3.87,7.95,90890.17,907.61,0.0,0.0,0.0
36724,2,36724,61,3.25,8.65,4.19,0.-2,0.-14,0.-14,3.81,7.94,90884.89,907.80,0.0,0.0,0.0
36770,2,36770,46,3.39,8.55,4.24,0.0,0.-14,0.-13,3.87,7.94,90879.37,907.31,0.0,0.0,0.0
36816,2,36816,46,3.48,8.53,4.48,0.3,0.-9,0.-10,3.87,7.94,90890.24,907.90,0.0,0.0,0.0
36863,2,36863,47,3.43,8.59,3.95,0.7,0.-8,0.-10,3.81,7.94,90889.6,908.1,0.0,0.0,0.0
36909,2,36909,46,3.24,8.55,3.97,0.2,0.-9,0.-10,3.87,7.96,90884.78,907.90,0.0,0.0,0.0
36955,2,36955,46,3.30,8.57,4.27,0.2,0.-9,0.-10,3.93,7.96,90890.17,907.92,0.0,0.0,0.0
36998,2,36998,43,3.25,8.53,4.44,0.5,0.-10,0.-10,3.87,7.95,90889.12,907.91,0.0,0.0,0.0
37044,2,37044,46,3.8,8.63,4.51,0.11,0.-9,0.-7,3.87,7.96,90886.89,908.40,0.0,0.0,0.0
37090,2,37090,46,3.25,8.62,4.9,0.17,0.5,0.0,3.81,7.96,90881.48,908.30,0.0,0.0,0.0
37136,2,37136,46,3.57,8.53,4.8,0.15,0.5,0.0,3.87,7.95,90888.0,908.20,0.0,0.0,0.0
37182,2,37182,46,3.46,8.58,3.77,0.9,0.-3,0.-3,3.93,7.96,90890.17,907.62,0.0,0.0,0.0
37233,2,37233,51,3.61,8.58,4.16,0.5,0.-12,0.-10,3.87,7.95,90884.78,908.31,0.0,0.0,0.0
37276,2,37276,43,2.77,8.68,4.1,0.7,0.-10,0.-8,3.93,7.95,90882.53,907.81,0.0,0.0,0.0
37322,2,37322,46,4.77,8.45,3.40,0.6,0.0,0.-5,3.87,7.95,90876.2,907.91,0.0,0.0,0.0
37368,2,37368,46,3.21,8.64,3.67,0.-11,0.-30,0.-27,3.81,7.96,90889.6,907.71,0.0,0.0,0.0
37414,2,37414,46,2.84,8.58,4.74,0.-10,0.-24,0.-21,3.87,7.95,90884.71,908.40,0.0,0.0,0.0
37460,2,37460,46,3.33,8.59,4.26,0.5,0.-8,0.-9,3.93,7.95,90884.71,908.21,0.0,0.0,0.0
37506,2,37506,46,3.40,8.61,4.21,0.8,0.-8,0.-8,3.87,7.96,90884.71,907.92,0.0,0.0,0.0
37549,2,37549,43,3.29,8.57,3.99,0.8,0.-8,0.-9,3.93,7.96,90890.12,907.72,0.0,0.0,0.0
37595,2,37595,46,3.56,8.57,3.94,0.6,0.-7,0.-9,3.87,7.96,90882.53,907.92,0.0,0.0,0.0
37641,2,37641,46,3.22,8.62,4.17,0.4,0.-9,0.-9,3.87,7.95,90885.77,908.1,0.0,0.0,0.0
37687,2,37687,46,3.63,8.58,4.7,0.7,0.-5,0.-7,3.87,7.95,90886.89,908.31,0.0,0.0,0.0
37738,2,37738,51,3.34,8.59,3.99,0.4,0.-9,0.-10,3.87,7.96,90885.83,907.71,0.0,0.0,0.0
37784,2,37784,46,3.36,8.55,4.4,0.3,0.-10,0.-8,3.87,7.96,90887.94,907.42,0.0,0.0,0.0
37827,2,37827,43,3.45,8.53,4.38,0.3,0.-11,0.-10,3.87,7.96,90883.65,907.71,0.0,0.0,0.0
37874,2,37874,47,3.29,8.61,3.97,0.8,0.-7,0.-10,3.81,7.96,90883.60,908.11,0.0,0.0,0.0
37920,2,37920,46,3.59,8.53,3.90,0.5,0.-8,0.-9,3.93,7.96,90885.77,907.91,0.0,0.0,0.0
37966,2,37966,46,3.30,8.62,3.98,0.1,0.-11,0.-11,3.93,7.96,90883.60,908.40,0.0,0.0,0.0
38012,2,38012,46,3.45,8.54,4.33,0.2,0.-11,0.-12,3.87,7.95,90885.83,908.50,0.0,0.0,0.0
38058,2,38058,46,3.37,8.58,4.1,0.3,0.-8,0.-12,3.81,7.95,90882.53,907.52,0.0,0.0,0.0
38101,2,38101,43,3.21,8.61,4.19,0.1,0.-11,0.-8,3.81,7.97,90886.89,908.11,0.0,0.0,0.0
38147,2,38147,46,3.44,8.58,4.12,0.3,0.-6,0.-6,3.87,7.97,90885.77,907.42,0.0,0.0,0.0
38193,2,38193,46,3.47,8.53,4.35,0.2,0.-8,0.-9,3.81,7.96,90883.65,907.91,0.0,0.0,0.0
38244,2,38244,51,3.35,8.68,4.23,0.8,0.-3,0.-10,3.81,7.96,90883.60,908.50,0.0,0.0,0.0
38290,2,38290,46,3.33,8.59,3.82,0.2,0.-9,0.-10,3.87,7.95,90885.77,907.72,0.0,0.0,0.0
38336,2,38336,46,3.30,8.55,4.41,0.0,0.-10,0.-9,3.81,7.96,90890.6,907.91,0.0,0.0,0.0
38379,2,38379,43,3.57,8.58,4.12,0.1,0.-8,0.-7,3.87,7.97,90889.0,907.42,0.0,0.0,0.0
38425,2,38425,46,3.62,8.45,4.38,0.2,0.-12,0.-13,3.81,7.96,90881.42,907.92,0.0,0.0,0.0
38471,2,38471,46,3.33,8.55,4.4,0.2,0.-13,0.-16,3.87,7.96,90886.82,908.1,0.0,0.0,0.0
38517,2,38517,46,3.27,8.49,4.25,0.0,0.-9,0.-11,3.93,7.96,90883.65,908.21,0.0,0.0,0.0
38563,2,38563,46,3.45,8.22,4.46,0.2,0.-8,0.-10,3.87,7.96,90892.29,907.61,0.0,0.0,0.0
38609,2,38609,46,3.24,8.56,4.21,0.6,0.-9,0.-10,3.81,7.95,90889.0,907.72,0.0,0.0,0.0
38652,2,38652,43,3.31,8.53,4.22,0.6,0.-8,0.-8,3.87,7.95,90881.42,908.1,0.0,0.0,0.0
38698,2,38698,46,3.33,8.55,4.6,0.4,0.-9,0.-8,3.87,7.96,90889.6,907.42,0.0,0.0,0.0
38749,2,38749,51,3.30,8.56,4.35,0.3,0.-9,0.-8,3.93,7.95,90885.83,907.61,0.0,0.0,0.0
38795,2,38795,46,3.48,8.47,4.29,0.4,0.-9,0.-9,3.81,7.96,90881.48,907.71,0.0,0.0,0.0
38841,2,38841,46,3.48,8.49,4.19,0.4,0.-6,0.-9,3.81,7.95,90883.65,907.11,0.0,0.0,0.0
38888,2,38888,47,3.46,8.53,4.46,0.6,0.-10,0.-11,3.87,7.96,90882.53,907.81,0.0,0.0,0.0
38937,2,38937,49,3.14,8.63,3.95,0.8,0.-8,0.-11,3.87,7.97,90884.65,907.82,0.0,0.0,0.0
38983,2,38983,46,3.36,8.59,4.9,0.3,0.-9,0.-8,3.81,7.97,90883.60,907.92,0.0,0.0,0.0
39029,2,39029,46,3.47,8.50,4.28,0.2,0.-10,0.-9,3.93,7.96,90889.0,908.11,0.0,0.0,0.0
39075,2,39075,46,3.12,8.59,4.26,0.3,0.-13,0.-11,3.87,7.97,90882.53,908.60,0.0,0.0,0.0
39121,2,39121,46,3.46,8.48,4.17,0.4,0.-9,0.-10,3.87,7.95,90879.25,907.81,0.0,0.0,0.0
39167,2,39167,46,3.43,8.50,4.17,0.3,0.-11,0.-11,3.87,7.97,90894.40,907.81,0.0,0.0,0.0
39210,2,39210,43,3.18,8.59,4.9,0.3,0.-11,0.-13,3.87,7.97,90891.24,908.11,0.0,0.0,0.0
39271,2,39271,61,3.19,8.52,4.13,0.3,0.-9,0.-9,3.81,7.94,90882.60,907.41,0.0,0.0,0.0
39317,2,39317,46,3.53,8.52,4.18,0.1,0.-10,0.-10,3.81,7.95,90882.60,907.81,0.0,0.0,0.0
39363,2,39363,46,3.38,8.49,4.40,0.3,0.-11,0.-10,3.87,7.94,90889.6,908.1,0.0,0.0,0.0
39409,2,39409,46,3.36,8.49,4.9,0.4,0.-8,0.-10,3.87,7.96,90883.65,908.11,0.0,0.0,0.0
39455,2,39455,46,3.33,8.50,4.42,0.5,0.-9,0.-11,3.87,7.95,90885.77,908.50,0.0,0.0,0.0
39498,2,39498,43,3.29,8.53,4.12,0.8,0.-8,0.-10,3.81,7.95,90879.25,907.62,0.0,0.0,0.0
39544,2,39544,46,3.25,8.55,4.4,0.7,0.-9,0.-9,3.87,7.96,90878.19,907.32,0.0,0.0,0.0
39590,2,39590,46,3.34,8.53,4.24,0.6,0.-9,0.-8,3.87,7.96,90889.0,907.13,0.0,0.0,0.0
39636,2,39636,46,3.34,8.56,3.98,0.5,0.-9,0.-8,3.87,7.96,90890.12,908.11,0.0,0.0,0.0
39682,2,39682,46,3.45,8.56,4.15,0.4,0.-9,0.-9,3.87,7.95,90884.71,908.1,0.0,0.0,0.0
39728,2,39728,46,3.34,8.56,4.28,0.5,0.-9,0.-10,3.81,7.96,90883.53,907.72,0.0,0.0,0.0
39777,2,39777,49,3.34,8.53,4.18,0.5,0.-9,0.-11,3.87,7.96,90890.12,908.41,0.0,0.0,0.0
39823,2,39823,46,3.26,8.58,4.15,0.5,0.-8,0.-11,3.87,7.96,90885.77,908.11,0.0,0.0,0.0
39869,2,39869,46,3.40,8.56,4.15,0.5,0.-9,0.-10,3.81,7.96,90886.89,908.1,0.0,0.0,0.0
39916,2,39916,47,3.8,8.54,4.12,0.5,0.-9,0.-11,3.81,7.95,90886.89,908.11,0.0,0.0,0.0
39962,2,39962,46,3.36,8.56,4.16,0.4,0.-9,0.-9,3.81,7.97,90885.77,907.81,0.0,0.0,0.0
40008,2,40008,46,3.51,8.52,4.37,0.4,0.-9,0.-11,3.87,7.96,90888.88,907.72,0.0,0.0,0.0
40051,2,40051,43,3.63,8.47,4.4,0.6,0.-6,0.-16,3.75,7.96,90884.65,908.31,0.0,0.0,0.0
40097,2,40097,46,2.95,8.59,4.4,0.0,0.-10,0.-18,3.81,7.97,90890.12,908.1,0.0,0.0,0.0
40143,2,40143,46,3.4,8.22,4.51,0.2,0.-10,0.-10,3.87,7.97,90893.35,907.62,0.0,0.0,0.0
40189,2,40189,46,3.34,8.54,4.32,0.5,0.-9,0.-8,3.87,7.97,90887.88,907.82,0.0,0.0,0.0
40235,2,40235,46,3.30,8.55,4.19,0.6,0.-9,0.-10,3.87,7.96,90884.71,907.52,0.0,0.0,0.0
40286,2,40286,51,3.49,8.51,4.4,0.5,0.-8,0.-12,3.87,7.96,90890.6,908.21,0.0,0.0,0.0
40329,2,40329,43,3.46,8.50,4.17,0.3,0.-11,0.-16,3.87,7.96,90883.53,907.72,0.0,0.0,0.0
40375,2,40375,46,2.75,8.60,4.34,0.4,0.-15,0.-13,3.87,7.96,90889.0,907.52,0.0,0.0,0.0
40421,2,40421,46,3.34,8.56,4.27,0.8,0.-9,0.-7,3.87,7.97,90883.60,908.41,0.0,0.0,0.0
40467,2,40467,46,3.41,8.61,4.0,0.6,0.-8,0.-8,3.87,7.96,90892.23,908.31,0.0,0.0,0.0
40513,2,40513,46,3.37,8.59,4.16,0.3,0.-9,0.-10,3.87,7.97,90881.42,908.21,0.0,0.0,0.0
40559,2,40559,46,3.24,8.59,4.29,0.3,0.-9,0.-11,3.93,7.97,90886.76,907.82,0.0,0.0,0.0
40602,2,40602,43,3.17,8.61,4.21,0.4,0.-9,0.-10,3.93,7.97,90885.71,907.82,0.0,0.0,0.0
40648,2,40648,46,3.22,8.67,4.21,0.5,0.-9,0.-10,3.93,7.97,90881.36,907.53,0.0,0.0,0.0
40694,2,40694,46,3.14,8.56,4.18,0.5,0.-9,0.-9,3.93,7.97,90888.94,908.41,0.0,0.0,0.0
40740,2,40740,46,3.40,8.60,4.16,0.5,0.-9,0.-9,3.87,7.97,90882.48,908.2,0.0,0.0,0.0
40791,2,40791,51,3.32,8.59,4.33,0.4,0.-9,0.-10,3.87,7.96,90893.35,908.11,0.0,0.0,0.0
40837,2,40837,46,3.12,8.63,4.15,0.6,0.-9,0.-10,3.93,7.96,90887.88,908.2,0.0,0.0,0.0
40880,2,40880,43,3.22,8.59,4.18,0.5,0.-9,0.-9,4.0,7.97,90881.36,908.11,0.0,0.0,0.0
40927,2,40927,47,3.13,8.54,4.17,0.6,0.-9,0.-8,3.87,7.97,90888.94,907.42,0.0,0.0,0.0
40973,2,40973,46,3.44,8.57,4.13,0.6,0.-9,0.-8,3.87,7.96,90886.76,908.11,0.0,0.0,0.0
41019,2,41019,46,3.29,8.58,4.8,0.5,0.-9,0.-10,3.87,7.97,90880.30,907.23,0.0,0.0,0.0
41065,2,41065,46,3.16,8.61,4.26,0.4,0.-9,0.-11,3.87,7.97,90881.36,908.32,0.0,0.0,0.0
41111,2,41111,46,3.25,8.63,4.15,0.4,0.-9,0.-10,3.87,7.97,90886.76,907.62,0.0,0.0,0.0
41161,2,41161,50,3.12,8.59,4.31,0.4,0.-9,0.-9,3.93,7.98,90882.42,908.12,0.0,0.0,0.0
41207,2,41207,46,3.36,8.58,4.19,0.7,0.-9,0.-8,3.93,7.98,90883.47,907.62,0.0,0.0,0.0
41253,2,41253,46,3.22,8.64,4.6,0.5,0.-9,0.-9,3.93,7.97,90879.18,908.12,0.0,0.0,0.0
41326,2,41326,73,3.32,8.57,4.30,0.4,0.-9,0.-10,3.87,7.94,90883.65,907.91,0.0,0.0,0.0
41372,2,41372,46,3.13,8.60,4.7,0.5,0.-9,0.-10,3.93,7.95,90881.48,907.41,0.0,0.0,0.0
41418,2,41418,46,3.7,8.60,4.25,0.4,0.-9,0.-9,3.87,7.96,90883.65,906.93,0.0,0.0,0.0
41461,2,41461,43,3.23,8.55,4.13,0.6,0.-9,0.-8,3.87,7.97,90888.94,908.11,0.0,0.0,0.0
41507,2,41507,46,3.41,8.60,4.1,0.5,0.-8,0.-8,3.87,7.97,90882.48,908.32,0.0,0.0,0.0
41553,2,41553,46,3.37,8.58,4.16,0.3,0.-9,0.-10,3.93,7.96,90881.36,908.2,0.0,0.0,0.0
41599,2,41599,46,3.18,7.36,4.13,0.4,0.-9,0.-11,3.93,7.97,90881.36,907.33,0.0,0.0,0.0
41645,2,41645,46,3.13,8.61,4.20,0.5,0.-9,0.-9,3.87,7.97,90890.6,908.51,0.0,0.0,0.0
41691,2,41691,46,3.14,8.58,4.24,0.6,0.-9,0.-8,4.0,7.97,90882.42,907.14,0.0,0.0,0.0
41734,2,41734,43,3.39,8.26,4.2,0.6,0.-9,0.-8,3.87,7.98,90880.30,907.72,0.0,0.0,0.0
41780,2,41780,46,3.26,8.63,4.18,0.4,0.-9,0.-9,3.87,7.97,90886.76,907.53,0.0,0.0,0.0
41832,2,41832,52,3.26,8.60,4.18,0.5,0.-9,0.-10,3.81,7.97,90882.48,907.72,0.0,0.0,0.0
41878,2,41878,46,3.15,8.61,4.4,0.4,0.-9,0.-10,3.87,7.97,90886.82,906.93,0.0,0.0,0.0
41924,2,41924,46,3.12,8.59,4.24,0.4,0.-9,0.-9,3.87,7.97,90892.23,908.31,0.0,0.0,0.0
41971,2,41971,47,3.29,8.61,4.14,0.5,0.-9,0.-8,3.81,7.97,90877.7,907.73,0.0,0.0,0.0
42014,2,42014,43,3.36,8.58,4.13,0.4,0.-9,0.-9,3.93,7.97,90882.42,908.2,0.0,0.0,0.0
42060,2,42060,46,3.25,8.59,4.20,0.3,0.-9,0.-11,3.93,7.98,90888.88,907.93,0.0,0.0,0.0
42106,2,42106,46,3.19,8.60,4.23,0.4,0.-9,0.-10,3.87,7.98,90883.41,907.23,0.0,0.0,0.0
42152,2,42152,46,3.16,8.57,4.22,0.5,0.-9,0.-10,3.81,7.98,90883.53,907.83,0.0,0.0,0.0
42198,2,42198,46,3.25,8.61,4.18,0.5,0.-9,0.-8,3.87,7.97,90887.88,907.92,0.0,0.0,0.0
42244,2,42244,46,3.40,8.62,4.15,0.5,0.-9,0.-8,3.87,7.98,90885.64,907.83,0.0,0.0,0.0
42287,2,42287,43,3.30,8.62,4.13,0.4,0.-9,0.-10,3.87,7.98,90883.47,908.12,0.0,0.0,0.0
42338,2,42338,51,3.23,8.60,4.15,0.3,0.-9,0.-11,3.87,7.97,90887.82,907.63,0.0,0.0,0.0
42384,2,42384,46,3.19,8.60,4.22,0.4,0.-9,0.-9,3.87,7.98,90883.47,908.22,0.0,0.0,0.0
42430,2,42430,46,3.26,8.60,4.18,0.5,0.-9,0.-9,3.93,7.97,90883.53,907.92,0.0,0.0,0.0
42476,2,42476,46,3.35,8.56,4.6,0.5,0.-8,0.-9,3.87,7.98,90885.64,907.72,0.0,0.0,0.0
42522,2,42522,46,3.33,8.56,4.21,0.3,0.-9,0.-10,3.87,7.98,90886.71,907.34,0.0,0.0,0.0
42565,2,42565,43,3.18,8.59,4.27,0.5,0.-8,0.-10,3.87,7.98,90885.64,907.83,0.0,0.0,0.0
42611,2,42611,46,3.20,8.59,4.13,0.5,0.-9,0.-10,3.87,7.98,90883.47,907.93,0.0,0.0,0.0
42657,2,42657,46,3.18,8.57,4.27,0.5,0.-10,0.-9,3.93,7.98,90884.59,907.83,0.0,0.0,0.0
42703,2,42703,46,3.37,8.60,4.5,0.5,0.-9,0.-8,3.93,7.97,90888.88,907.43,0.0,0.0,0.0
42749,2,42749,46,3.25,8.56,4.28,0.4,0.-9,0.-10,3.87,7.99,90873.72,907.83,0.0,0.0,0.0
42795,2,42795,46,3.20,8.61,4.5,0.5,0.-9,0.-10,3.87,7.98,90883.47,907.5,0.0,0.0,0.0
42843,2,42843,48,3.23,8.55,4.29,0.4,0.-9,0.-8,3.87,7.98,90888.94,907.63,0.0,0.0,0.0
42889,2,42889,46,3.36,8.59,4.6,0.5,0.-9,0.-9,3.87,7.98,90884.59,907.63,0.0,0.0,0.0
42935,2,42935,46,3.29,8.60,4.17,0.4,0.-9,0.-10,3.87,7.98,90885.64,908.22,0.0,0.0,0.0
42982,2,42982,47,3.29,8.62,4.15,0.3,0.-9,0.-10,3.87,7.99,90885.64,907.83,0.0,0.0,0.0
43028,2,43028,46,3.21,8.65,4.29,0.4,0.-9,0.-10,3.87,7.98,90886.71,907.53,0.0,0.0,0.0
43074,2,43074,46,3.17,8.58,4.16,0.5,0.-9,0.-10,3.87,7.98,90890.0,907.24,0.0,0.0,0.0
43117,2,43117,43,3.18,8.58,4.22,0.5,0.-8,0.-8,3.87,7.99,90885.59,907.73,0.0,0.0,0.0
43163,2,43163,46,3.28,8.61,4.20,0.5,0.-9,0.-8,3.93,7.99,90885.59,908.12,0.0,0.0,0.0
43209,2,43209,46,3.36,8.53,4.9,0.4,0.-9,0.-9,3.93,7.98,90887.76,908.32,0.0,0.0,0.0
43255,2,43255,46,3.28,8.58,4.25,0.3,0.-9,0.-10,3.87,7.98,90885.59,907.53,0.0,0.0,0.0
43301,2,43301,46,3.32,8.33,4.25,0.5,0.-9,0.-11,3.93,7.98,90876.95,907.83,0.0,0.0,0.0
43352,2,43352,51,3.12,8.61,4.19,0.4,0.-9,0.-10,3.93,7.98,90885.59,908.3,0.0,0.0,0.0
43402,2,43402,50,3.23,8.56,4.26,0.5,0.-9,0.-8,3.93,7.99,90883.47,908.3,0.0,0.0,0.0
43448,2,43448,46,3.24,8.60,4.7,0.5,0.-9,0.-9,3.87,7.98,90884.46,907.63,0.0,0.0,0.0
43494,2,43494,46,3.27,8.58,4.18,0.4,0.-9,0.-10,3.87,7.98,90889.93,908.72,0.0,0.0,0.0
43540,2,43540,46,3.17,8.61,4.26,0.3,0.-8,0.-10,3.81,7.99,90886.71,908.13,0.0,0.0,0.0
43586,2,43586,46,3.19,8.57,4.19,0.5,0.-9,0.-10,3.81,7.99,90885.64,907.83,0.0,0.0,0.0
43632,2,43632,46,3.18,8.59,4.32,0.5,0.-9,0.-9,3.87,7.98,90882.35,907.93,0.0,0.0,0.0
43681,2,43681,49,3.25,8.60,4.18,0.6,0.-9,0.-7,3.93,7.98,90883.47,908.2,0.0,0.0,0.0
43727,2,43727,46,3.36,8.60,4.3,0.5,0.-9,0.-9,3.81,7.99,90886.71,908.22,0.0,0.0,0.0
43773,2,43773,46,3.25,8.53,4.25,0.3,0.-9,0.-10,3.87,7.99,90883.47,907.44,0.0,0.0,0.0
43819,2,43819,46,3.18,8.56,4.23,0.5,0.-9,0.-10,3.87,7.99,90882.35,907.14,0.0,0.0,0.0
43881,2,43881,62,3.11,8.57,4.24,0.5,0.-9,0.-10,3.93,7.97,90887.88,908.51,0.0,0.0,0.0
43927,2,43927,46,3.17,8.58,4.21,0.5,0.-9,0.-8,3.93,7.98,90882.42,908.42,0.0,0.0,0.0
43976,2,43976,49,3.38,8.56,4.13,0.5,0.-9,0.-8,3.93,7.97,90883.47,908.42,0.0,0.0,0.0
44023,2,44023,47,3.25,8.57,4.12,0.4,0.-9,0.-10,3.93,7.98,90886.76,908.71,0.0,0.0,0.0
44069,2,44069,46,3.28,8.58,4.21,0.3,0.-9,0.-10,3.93,7.99,90882.42,907.83,0.0,0.0,0.0
44115,2,44115,46,3.23,8.59,4.33,0.3,0.-9,0.-10,3.93,7.99,90884.53,908.12,0.0,0.0,0.0
44161,2,44161,46,3.22,8.61,4.18,0.5,0.-9,0.-10,3.87,8.0,90885.64,907.63,0.0,0.0,0.0
44207,2,44207,46,3.20,8.63,4.22,0.5,0.-9,0.-10,3.87,7.99,90887.76,907.73,0.0,0.0,0.0
44256,2,44256,49,3.36,8.59,4.12,0.5,0.-8,0.-8,4.0,7.98,90883.47,907.83,0.0,0.0,0.0
44302,2,44302,46,3.15,8.59,4.21,0.3,0.-9,0.-11,3.93,7.99,90881.24,907.83,0.0,0.0,0.0
44348,2,44348,46,3.29,8.56,4.8,0.3,0.-9,0.-10,4.0,7.99,90881.30,907.93,0.0,0.0,0.0
44400,2,44400,52,3.17,8.57,4.21,0.1,0.-9,0.-11,3.93,7.98,90880.18,908.23,0.0,0.0,0.0
44446,2,44446,46,3.31,8.58,4.30,0.3,0.-8,0.-8,3.93,7.98,90881.30,907.73,0.0,0.0,0.0
44492,2,44492,46,3.32,8.57,4.35,0.4,0.-9,0.-10,3.93,7.99,90883.41,907.63,0.0,0.0,0.0
44541,2,44541,49,3.16,8.58,4.28,0.5,0.-9,0.-9,3.87,7.98,90886.76,908.32,0.0,0.0,0.0
44587,2,44587,46,3.31,8.55,4.32,0.7,0.-9,0.-8,3.93,7.99,90886.76,907.63,0.0,0.0,0.0
44633,2,44633,46,3.35,8.62,4.9,0.7,0.-8,0.-9,3.93,7.99,90889.93,907.63,0.0,0.0,0.0
44679,2,44679,46,3.24,8.62,4.15,0.4,0.-8,0.-11,3.93,7.98,90894.22,907.33,0.0,0.0,0.0
44725,2,44725,46,3.23,8.56,4.45,0.5,0.-9,0.-12,3.93,7.98,90887.76,908.12,0.0,0.0,0.0
44771,2,44771,46,3.6,8.61,4.28,0.7,0.-8,0.-8,3.93,7.99,90884.53,907.83,0.0,0.0,0.0
44820,2,44820,49,3.37,8.57,4.1,0.5,0.-9,0.-7,3.93,7.99,90886.64,908.3,0.0,0.0,0.0
44866,2,44866,46,3.22,8.61,4.18,0.3,0.-9,0.-9,4.0,7.99,90880.18,907.93,0.0,0.0,0.0
44917,2,44917,51,3.25,8.57,4.19,0.2,0.-9,0.-10,3.93,7.99,90885.64,908.42,0.0,0.0,0.0
44963,2,44963,46,3.19,8.55,4.31,0.3,0.-9,0.-11,3.93,7.98,90883.47,907.83,0.0,0.0,0.0
45009,2,45009,46,3.21,8.56,4.33,0.4,0.-8,0.-10,3.87,7.99,90885.59,907.73,0.0,0.0,0.0
45056,2,45056,47,3.13,8.56,4.24,0.6,0.-9,0.-10,4.0,7.99,90882.35,908.3,0.0,0.0,0.0
45105,2,45105,49,3.11,8.60,4.12,0.6,0.-9,0.-8,4.0,7.99,90883.41,907.63,0.0,0.0,0.0
45151,2,45151,46,3.33,8.55,4.14,0.5,0.-9,0.-8,3.93,7.99,90888.82,907.93,0.0,0.0,0.0
45197,2,45197,46,3.36,8.59,4.14,0.4,0.-9,0.-9,3.93,8.0,90886.64,907.14,0.0,0.0,0.0
45243,2,45243,46,3.22,8.61,4.16,0.3,0.-9,0.-10,3.93,7.99,90882.29,907.74,0.0,0.0,0.0
45289,2,45289,46,3.21,8.56,4.36,0.3,0.-9,0.-10,3.93,7.99,90879.7,907.84,0.0,0.0,0.0
45335,2,45335,46,3.23,8.61,4.30,0.5,0.-8,0.-9,3.93,7.99,90882.29,908.3,0.0,0.0,0.0
45384,2,45384,49,3.17,8.55,4.16,0.6,0.-9,0.-9,3.93,7.99,90885.59,907.44,0.0,0.0,0.0
45437,2,45437,53,3.40,8.59,4.21,0.4,0.-9,0.-9,3.87,7.98,90889.93,908.12,0.0,0.0,0.0
45483,2,45483,46,3.29,8.59,4.18,0.3,0.-9,0.-10,3.93,7.98,90887.76,908.23,0.0,0.0,0.0
45529,2,45529,46,3.24,8.61,4.29,0.3,0.-9,0.-11,3.93,7.99,90883.41,908.3,0.0,0.0,0.0
45575,2,45575,46,3.21,8.58,4.28,0.4,0.-9,0.-11,4.0,7.99,90887.70,908.52,0.0,0.0,0.0
45621,2,45621,46,3.23,8.56,4.32,0.5,0.-9,0.-9,4.0,7.99,90881.24,908.13,0.0,0.0,0.0
45674,2,45674,53,3.16,8.56,4.37,0.6,0.-9,0.-9,3.93,7.99,90885.64,907.93,0.0,0.0,0.0
45720,2,45720,46,3.44,8.55,4.9,0.7,0.-9,0.-8,4.0,8.0,90885.59,907.63,0.0,0.0,0.0
45766,2,45766,46,3.28,8.59,4.13,0.4,0.-9,0.-11,3.93,7.99,90886.58,907.73,0.0,0.0,0.0
45812,2,45812,46,3.12,8.59,4.35,0.3,0.-9,0.-10,3.87,7.99,90883.41,908.3,0.0,0.0,0.0
45858,2,45858,46,3.28,8.57,4.30,0.5,0.-9,0.-10,4.0,7.99,90887.70,907.44,0.0,0.0,0.0
45904,2,45904,46,3.6,8.59,4.21,0.6,0.-9,0.-8,3.93,8.1,90884.46,907.64,0.0,0.0,0.0
45967,2,45967,63,3.35,8.59,4.6,0.5,0.-9,0.-8,3.93,7.98,90885.59,907.93,0.0,0.0,0.0
46013,2,46013,46,3.36,8.59,4.31,0.4,0.-9,0.-9,3.93,7.98,90888.88,908.23,0.0,0.0,0.0
46060,2,46060,47,3.20,8.59,4.24,0.4,0.-9,0.-10,3.93,7.99,90888.82,907.74,0.0,0.0,0.0
46106,2,46106,46,3.25,8.58,4.24,0.5,0.-9,0.-10,4.0,8.0,90882.29,908.42,0.0,0.0,0.0
346154,300048,-9.-13,1.89,0.85,0.5,0.-20,0.-10,6.25,9.23,90873.35,908.75,0.0,0.0,0.0
346205,2,346205,51,-8.-89,1.56,0.89,0.5,0.-9,0.-13,6.37,9.27,90876.28,908.78,0.0,0.0,0.0
346254,2,346254,49,-9.-4,2.8,0.98,0.5,0.-7,0.-8,6.25,9.30,90872.83,908.80,0.0,0.0,0.0
346300,2,346300,46,-9.-9,3.27,0.90,0.5,0.-20,0.-12,6.25,9.31,90874.86,908.61,0.0,0.0,0.0
346346,2,346346,46,-8.-88,2.15,0.77,0.7,0.-7,0.-14,6.37,9.33,90873.67,908.62,0.0,0.0,0.0
346392,2,346392,46,-9.-48,3.20,1.9,0.4,0.-21,0.-9,6.37,9.34,90880.6,909.13,0.0,0.0,0.0
346438,2,346438,46,-9.-24,3.15,1.6,0.5,0.-3,0.-11,6.18,9.35,90875.70,908.14,0.0,0.0,0.0
346484,2,346484,46,-9.-48,1.51,0.81,0.5,0.-14,0.-11,6.37,9.35,90877.80,908.25,0.0,0.0,0.0
346527,2,346527,43,-9.-42,3.9,0.85,0.5,0.-10,0.-10,6.43,9.36,90873.36,908.84,0.0,0.0,0.0
346573,2,346573,46,-9.-17,2.13,0.95,0.6,0.-3,0.-9,6.31,9.37,90873.36,908.85,0.0,0.0,0.0
346619,2,346619,46,-9.-16,2.42,0.93,0.4,0.-14,0.-8,6.43,9.38,90879.83,908.85,0.0,0.0,0.0
346665,2,346665,46,-9.-5,2.22,0.98,0.5,0.4,0.-8,6.37,9.37,90874.42,909.15,0.0,0.0,0.0
346716,2,346716,51,-9.-46,3.42,1.2,0.4,0.-14,0.-9,6.43,9.37,90876.60,908.65,0.0,0.0,0.0
346762,2,346762,46,-9.-33,3.17,0.94,0.4,0.-16,0.-11,6.37,9.37,90872.32,908.25,0.0,0.0,0.0
346805,2,346805,43,-9.-5,2.88,0.91,0.3,0.-23,0.-9,6.43,9.37,90883.14,908.55,0.0,0.0,0.0
346851,2,346851,46,-9.-12,2.39,1.23,0.3,0.-11,0.-10,6.37,9.38,90871.18,908.65,0.0,0.0,0.0
346897,2,346897,46,-9.-18,3.30,0.87,0.5,0.-10,0.-10,6.43,9.38,90873.29,908.75,0.0,0.0,0.0
346943,2,346943,46,-8.-99,2.44,0.94,0.4,0.-5,0.-12,6.31,9.38,90872.24,908.95,0.0,0.0,0.0
346989,2,346989,46,-9.-24,3.23,1.35,0.4,0.-22,0.-10,6.25,9.38,90875.47,909.4,0.0,0.0,0.0
347035,2,347035,46,-9.-42,2.47,1.1,0.5,0.3,0.-12,6.37,9.38,90873.36,908.74,0.0,0.0,0.0
347078,2,347078,43,-9.-4,1.76,0.94,0.5,0.-22,0.-8,6.31,9.38,90876.60,908.95,0.0,0.0,0.0
347124,2,347124,46,-9.-47,3.43,0.86,0.5,0.-15,0.-12,6.37,9.37,90873.29,908.95,0.0,0.0,0.0
347171,2,347171,47,-9.-15,5.5,1.24,0.4,0.-28,0.-10,6.31,9.39,90875.40,909.34,0.0,0.0,0.0
347222,2,347222,51,-9.-76,6.69,1.37,0.4,0.-18,0.-9,6.43,9.38,90866.75,908.95,0.0,0.0,0.0
347268,2,347268,46,-9.-17,8.81,1.91,0.4,0.-10,0.-13,6.31,9.38,90877.65,908.85,0.0,0.0,0.0
347317,2,347317,49,-9.-3,3.4,0.65,0.6,0.24,0.-7,6.37,9.38,90878.71,908.46,0.0,0.0,0.0
347363,2,347363,46,-9.-24,2.70,0.81,0.5,0.-19,0.-9,6.25,9.39,90874.35,908.56,0.0,0.0,0.0
347409,2,347409,46,-8.-61,2.88,1.18,0.3,0.-29,0.-10,6.31,9.39,90869.91,908.76,0.0,0.0,0.0
347455,2,347455,46,-9.-44,2.85,1.11,0.4,0.-3,0.-10,6.31,9.38,90875.40,908.86,0.0,0.0,0.0
347501,2,347501,46,-9.-52,2.84,1.23,0.5,0.-16,0.-11,6.31,9.39,90872.17,908.56,0.0,0.0,0.0
347547,2,347547,46,-9.-23,2.86,0.94,0.4,0.0,0.-9,6.37,9.38,90878.71,909.44,0.0,0.0,0.0
347590,2,347590,43,-8.-86,2.90,1.13,0.3,0.-11,0.-9,6.37,9.38,90877.58,908.75,0.0,0.0,0.0
347636,2,347636,46,-9.-56,2.79,1.85,0.4,0.-26,0.-10,6.43,9.39,90876.45,908.96,0.0,0.0,0.0
347682,2,347682,46,-9.-17,2.83,0.97,0.3,0.-19,0.-8,6.37,9.38,90876.45,908.66,0.0,0.0,0.0
347733,2,347733,51,-8.-75,2.86,2.3,0.7,0.-23,0.-11,6.37,9.38,90874.42,908.85,0.0,0.0,0.0
347779,2,347779,46,-9.-82,2.45,1.14,0.4,0.-54,0.-10,6.31,9.39,90876.45,908.46,0.0,0.0,0.0
347825,2,347825,46,-8.-47,2.43,1.89,0.7,0.-77,0.-11,6.37,9.38,90872.17,908.96,0.0,0.0,0.0
347869,2,347869,44,-9.-51,2.96,1.91,0.5,0.-11,0.-12,6.31,9.38,90876.53,908.57,0.0,0.0,0.0
347915,2,347915,46,-8.-91,2.52,1.67,0.7,0.-27,0.-12,6.31,9.38,90872.17,909.15,0.0,0.0,0.0
347961,2,347961,46,-9.-17,1.49,1.44,0.5,0.-3,0.-5,6.31,9.38,90876.45,908.26,0.0,0.0,0.0
348007,2,348007,46,-9.-76,0.96,1.93,0.4,0.-5,0.-9,6.37,9.39,90868.78,908.37,0.0,0.0,0.0
348053,2,348053,46,-9.-47,0.88,1.64,0.4,0.-5,0.-5,6.31,9.39,90872.9,908.66,0.0,0.0,0.0
348102,2,348102,49,-8.-51,2.0,1.65,0.4,0.7,0.-10,6.43,9.39,90881.86,908.66,0.0,0.0,0.0
348148,2,348148,46,-9.-9,3.3,1.40,0.4,0.-10,0.-10,6.31,9.39,90873.21,908.76,0.0,0.0,0.0
348195,2,348195,47,-9.-38,4.26,2.13,0.7,0.-32,0.-21,6.31,9.39,90874.27,909.16,0.0,0.0,0.0
348256,2,348256,61,-9.-29,3.23,1.82,0.6,0.41,0.-8,6.37,9.37,90873.29,908.75,0.0,0.0,0.0
348302,2,348302,46,-8.-71,3.89,1.53,0.5,0.23,0.-9,6.31,9.38,90871.3,908.56,0.0,0.0,0.0
348348,2,348348,46,-9.-67,5.34,1.30,0.6,0.30,0.-11,6.37,9.38,90874.27,908.86,0.0,0.0,0.0
348391,2,348391,43,-9.-66,5.28,1.46,0.4,0.53,0.-10,6.37,9.40,90869.91,909.45,0.0,0.0,0.0
348437,2,348437,46,-8.-54,3.9,0.83,0.5,0.2,0.-8,6.37,9.39,90872.9,908.66,0.0,0.0,0.0
348483,2,348483,46,-9.-1,2.77,1.16,0.6,0.1,0.-9,6.37,9.40,90871.3,908.67,0.0,0.0,0.0
348529,2,348529,46,-9.-44,2.23,0.77,0.3,0.-47,0.-6,6.37,9.39,90877.50,908.7,0.0,0.0,0.0
348575,2,348575,46,-3.-31,4.38,0.73,0.2,0.-55,0.0,6.37,9.39,90877.50,908.27,0.0,0.0,0.0
348621,2,348621,46,-9.-84,2.80,1.6,0.4,0.-39,0.-13,6.31,9.39,90876.45,909.6,0.0,0.0,0.0
348664,2,348664,43,-9.-39,3.51,1.59,0.5,0.-78,0.-15,6.31,9.39,90869.91,908.46,0.0,0.0,0.0
348710,2,348710,46,-9.-31,2.80,2.63,0.5,0.-31,0.-11,6.37,9.39,90872.9,909.56,0.0,0.0,0.0
348775,2,348775,65,-9.-14,2.78,1.79,0.6,0.-5,0.-10,6.43,9.38,90879.83,908.55,0.0,0.0,0.0
348821,2,348821,46,-9.-28,2.83,1.67,0.6,0.-9,0.-11,6.37,9.39,90874.27,909.25,0.0,0.0,0.0
348867,2,348867,46,-9.-13,2.84,1.68,0.5,0.-16,0.-11,6.37,9.38,90880.82,908.66,0.0,0.0,0.0
348913,2,348913,46,-9.-22,2.87,1.81,0.5,0.0,0.-11,6.37,9.38,90868.85,908.96,0.0,0.0,0.0
348956,2,348956,43,-6.-87,2.95,1.72,0.7,0.-10,0.-21,6.31,9.38,90877.58,908.96,0.0,0.0,0.0
349002,2,349002,46,-8.-88,2.72,1.91,0.5,0.20,0.-7,6.37,9.39,90872.9,908.67,0.0,0.0,0.0
349048,2,349048,46,-8.-62,2.91,1.63,0.6,0.-8,0.-10,6.37,9.39,90878.56,908.76,0.0,0.0,0.0
349094,2,349094,46,-8.-72,2.79,1.60,0.6,0.-12,0.-11,6.37,9.40,90870.96,908.46,0.0,0.0,0.0
349140,2,349140,46,-9.-61,2.75,1.40,0.6,0.-2,0.-10,6.31,9.39,90874.20,908.96,0.0,0.0,0.0
349189,2,349189,49,-9.-25,2.75,1.47,0.5,0.-15,0.-10,6.31,9.40,90867.65,908.87,0.0,0.0,0.0
349236,2,349236,47,-9.-7,2.80,1.76,0.6,0.-14,0.-9,6.37,9.40,90870.96,908.76,0.0,0.0,0.0
349287,2,349287,51,-9.0,2.80,1.41,0.5,0.2,0.-10,6.37,9.39,90875.32,908.96,0.0,0.0,0.0
349333,2,349333,46,-8.-75,2.85,1.23,0.5,0.-12,0.-11,6.37,9.40,90868.78,908.67,0.0,0.0,0.0
349379,2,349379,46,-9.-15,2.79,1.31,0.5,0.-18,0.-10,6.37,9.39,90868.78,908.76,0.0,0.0,0.0
349425,2,349425,46,-10.-37,2.72,2.1,0.3,0.-27,0.-10,6.43,9.40,90879.68,909.6,0.0,0.0,0.0
349468,2,349468,43,-9.-47,2.82,0.88,0.3,0.-35,0.-9,6.37,9.39,90875.32,909.16,0.0,0.0,0.0
349514,2,349514,46,-9.-26,2.65,2.44,0.2,0.-28,0.-8,6.43,9.40,90869.91,908.76,0.0,0.0,0.0
349560,2,349560,46,-9.-36,2.77,1.90,0.1,0.-9,0.-8,6.37,9.39,90877.50,908.47,0.0,0.0,0.0
349606,2,349606,46,-8.-47,2.88,1.57,0.1,0.13,0.-8,6.37,9.40,90878.56,909.16,0.0,0.0,0.0
349652,2,349652,46,-9.-4,2.79,1.65,0.2,0.0,0.-8,6.43,9.40,90875.32,909.17,0.0,0.0,0.0
349698,2,349698,46,-9.-53,2.87,1.50,0.2,0.-24,0.-9,6.37,9.40,90873.14,908.96,0.0,0.0,0.0
349741,2,349741,43,-8.-76,2.78,1.86,0.3,0.-8,0.-9,6.31,9.40,90877.50,908.87,0.0,0.0,0.0
349792,2,349792,51,-9.-1,2.64,1.52,0.3,0.-24,0.-10,6.31,9.39,90873.14,908.86,0.0,0.0,0.0
349838,2,349838,46,-8.-57,2.91,1.76,0.2,0.-9,0.-9,6.37,9.40,90870.96,909.26,0.0,0.0,0.0
349884,2,349884,46,-9.-64,2.80,1.73,0.3,0.-14,0.-11,6.31,9.39,90874.20,909.16,0.0,0.0,0.0
349930,2,349930,46,-9.-48,2.82,1.55,0.3,0.-5,0.-10,6.37,9.40,90878.48,909.7,0.0,0.0,0.0
349982,2,349982,52,-9.-41,2.81,1.65,0.2,0.1,0.-7,6.31,9.40,90877.50,908.67,0.0,0.0,0.0
350028,2,350028,46,-9.-53,2.90,1.49,0.1,0.10,0.-7,6.43,9.40,90878.64,909.6,0.0,0.0,0.0
350074,2,350074,46,-9.-15,2.76,1.74,0.3,0.-1,0.-7,6.37,9.40,90878.56,909.7,0.0,0.0,0.0
350120,2,350120,46,-8.-81,2.85,1.87,0.5,0.-12,0.-8,6.37,9.40,90872.1,908.57,0.0,0.0,0.0
350166,2,350166,46,-8.-60,2.91,2.14,0.8,0.-9,0.-6,6.37,9.40,90877.43,909.7,0.0,0.0,0.0
350212,2,350212,46,-9.-19,2.89,1.70,0.14,0.45,0.-8,6.43,9.40,90872.1,908.67,0.0,0.0,0.0
350256,2,350256,44,-9.-56,2.84,1.8,0.7,0.-24,0.-5,6.37,9.41,90869.76,908.97,0.0,0.0,0.0
350316,2,350316,60,-9.-36,2.56,1.17,0.1,0.9,0.-6,6.43,9.39,90874.27,908.46,0.0,0.0,0.0
350362,2,350362,46,-9.-18,2.94,1.43,0.0,0.35,0.-5,6.31,9.39,90875.32,909.16,0.0,0.0,0.0
350408,2,350408,46,-8.-93,2.97,1.82,0.4,0.-22,0.-8,6.43,9.40,90872.1,908.67,0.0,0.0,0.0
350454,2,350454,46,-8.-90,2.96,1.78,0.10,0.-18,0.-8,6.37,9.40,90875.32,908.48,0.0,0.0,0.0
350500,2,350500,46,-9.-34,2.86,1.65,0.4,0.-16,0.-5,6.43,9.40,90873.7,908.76,0.0,0.0,0.0
350543,2,350543,43,-9.-19,3.7,1.28,0.4,0.-26,0.-6,6.37,9.40,90876.38,908.77,0.0,0.0,0.0
350589,2,350589,46,-8.-75,2.87,1.28,0.-2,0.-21,0.-4,6.37,9.40,90875.32,908.57,0.0,0.0,0.0
350635,2,350635,46,-9.-5,2.68,1.45,0.7,0.-29,0.-8,6.43,9.40,90873.7,908.57,0.0,0.0,0.0
350681,2,350681,46,-8.-89,2.36,1.84,0.3,0.31,0.-7,6.37,9.40,90873.0,909.37,0.0,0.0,0.0
350727,2,350727,46,-9.-21,2.23,1.40,0.4,0.-2,0.-6,6.43,9.40,90874.12,908.97,0.0,0.0,0.0
350773,2,350773,46,-9.-40,1.97,0.96,0.8,0.-30,0.-8,6.31,9.40,90873.14,908.47,0.0,0.0,0.0
350822,2,350822,49,-9.-47,1.72,1.47,0.1,0.-2,0.-8,6.37,9.41,90866.60,908.18,0.0,0.0,0.0
350868,2,350868,46,-9.-43,1.21,0.93,0.2,0.0,0.-6,6.43,9.40,90872.9,908.87,0.0,0.0,0.0
350914,2,350914,46,-9.-9,1.62,1.10,0.2,0.-26,0.-4,6.43,9.41,90874.12,909.26,0.0,0.0,0.0
350960,2,350960,46,-8.-62,3.6,1.64,0.1,0.-38,0.-5,6.37,9.41,90870.89,908.88,0.0,0.0,0.0
351006,2,351006,46,-9.0,5.21,2.51,0.2,0.-45,0.-9,6.43,9.40,90871.94,908.37,0.0,0.0,0.0
351052,2,351052,46,-8.-86,3.0,2.9,0.2,0.13,0.-10,6.37,9.41,90872.1,908.76,0.0,0.0,0.0
351095,2,351095,43,-9.-9,2.47,1.45,0.9,0.6,0.-6,6.43,9.41,90875.25,908.78,0.0,0.0,0.0
351141,2,351141,46,-9.-13,2.79,1.30,0.5,0.5,0.-6,6.43,9.40,90871.94,908.57,0.0,0.0,0.0
351187,2,351187,46,-9.-39,2.99,1.54,0.5,0.24,0.-6,6.43,9.41,90876.30,908.87,0.0,0.0,0.0
351233,2,351233,46,-8.-82,1.26,1.33,0.6,0.20,0.-8,6.31,9.41,90870.89,908.38,0.0,0.0,0.0
351280,2,351280,47,-8.-25,2.0,1.42,0.6,0.8,0.-11,6.37,9.41,90876.30,908.58,0.0,0.0,0.0
351333,2,351333,53,-8.-80,1.53,0.99,0.4,0.-6,0.-11,6.43,9.41,90878.56,908.97,0.0,0.0,0.0
351379,2,351379,46,-9.-9,2.95,0.91,0.3,0.-28,0.-10,6.37,9.41,90879.61,908.58,0.0,0.0,0.0
351425,2,351425,46,-9.-10,3.49,1.56,0.5,0.-15,0.-11,6.37,9.40,90874.4,909.17,0.0,0.0,0.0
351471,2,351471,46,-8.-63,4.30,1.7,0.3,0.21,0.-11,6.43,9.40,90879.53,908.38,0.0,0.0,0.0
351517,2,351517,46,-8.-7,3.33,1.19,0.6,0.-11,0.-14,6.43,9.41,90874.4,908.67,0.0,0.0,0.0
351563,2,351563,46,-8.-99,2.85,0.58,0.1,0.-31,0.-15,6.37,9.41,90873.7,908.47,0.0,0.0,0.0
351606,2,351606,43,-10.-43,3.91,1.57,0.1,0.-83,0.-18,6.50,9.41,90881.71,908.87,0.0,0.0,0.0
351652,2,351652,46,-11.-22,2.53,1.61,0.4,0.10,0.-13,6.37,9.41,90880.67,908.97,0.0,0.0,0.0
351698,2,351698,46,-9.-4,1.50,1.34,0.2,0.15,0.-8,6.43,9.41,90874.20,908.67,0.0,0.0,0.0
351744,2,351744,46,-9.-37,2.79,2.9,0.2,0.36,0.0,6.43,9.41,90878.41,908.59,0.0,0.0,0.0
351790,2,351790,46,-8.-1,1.34,1.12,0.5,0.26,0.-5,6.37,9.41,90876.30,908.37,0.0,0.0,0.0
351841,2,351841,51,-9.-22,1.95,0.68,0.2,0.-19,0.-6,6.43,9.40,90876.38,908.48,0.0,0.0,0.0
351884,2,351884,43,-8.-67,3.53,1.14,0.5,0.-51,0.-9,6.43,9.41,90876.30,908.37,0.0,0.0,0.0
351930,2,351930,46,-9.-73,3.81,1.34,0.4,0.-29,0.-9,6.31,9.40,90875.25,908.97,0.0,0.0,0.0
351976,2,351976,46,-8.-87,3.34,1.35,0.6,0.-31,0.-7,6.31,9.41,90877.35,909.17,0.0,0.0,0.0
352022,2,352022,46,-8.-47,4.37,1.56,0.5,0.-35,0.-8,6.31,9.41,90874.4,908.28,0.0,0.0,0.0
352068,2,352068,46,-8.-83,3.83,1.73,0.7,0.-30,0.-9,6.31,9.41,90878.41,908.58,0.0,0.0,0.0
352114,2,352114,46,-9.-6,3.6,1.10,0.4,0.1,0.-10,6.43,9.41,90875.25,909.17,0.0,0.0,0.0
352158,2,352158,44,-8.-87,4.66,1.74,0.6,0.-18,0.-13,6.31,9.41,90874.12,908.28,0.0,0.0,0.0
352204,2,352204,46,-9.-26,3.41,1.12,0.5,0.20,0.-8,6.37,9.41,90878.48,908.58,0.0,0.0,0.0
352250,2,352250,46,-8.-70,3.5,1.37,0.4,0.8,0.-12,6.37,9.41,90880.67,909.7,0.0,0.0,0.0
352297,2,352297,47,-9.-82,2.18,1.11,0.4,0.24,0.-11,6.37,9.42,90879.53,908.18,0.0,0.0,0.0
352358,2,352358,61,-9.-19,3.16,1.23,0.4,0.7,0.-10,6.37,9.39,90881.79,908.38,0.0,0.0,0.0
352401,2,352401,43,-10.-30,5.46,0.95,0.4,0.-25,0.-9,6.37,9.41,90875.25,908.67,0.0,0.0,0.0
352447,2,352447,46,-1.-17,2.97,0.90,0.7,0.-15,0.3,6.37,9.41,90877.35,908.38,0.0,0.0,0.0
352493,2,352493,46,-7.-19,1.74,0.-41,0.1,0.30,0.-9,6.43,9.41,90874.12,908.48,0.0,0.0,0.0
352539,2,352539,46,-9.-36,2.79,1.40,0.3,0.-73,0.-15,6.50,9.42,90878.48,908.58,0.0,0.0,0.0
352585,2,352585,46,-8.-66,3.66,1.74,0.3,0.-43,0.-11,6.31,9.41,90866.45,908.48,0.0,0.0,0.0
352631,2,352631,46,-9.-50,4.15,0.84,0.3,0.5,0.-15,6.43,9.42,90875.25,908.18,0.0,0.0,0.0
352674,2,352674,43,-10.-8,4.74,1.72,0.5,0.-21,0.-10,6.37,9.42,90878.48,908.57,0.0,0.0,0.0
352720,2,352720,46,-9.0,3.46,1.26,0.5,0.21,0.-6,6.37,9.41,90882.85,908.48,0.0,0.0,0.0
352766,2,352766,46,-8.-89,3.72,0.89,0.4,0.9,0.-9,6.50,9.41,90879.53,908.58,0.0,0.0,0.0
352812,2,352812,46,-8.-88,3.55,1.28,0.5,0.-11,0.-11,6.43,9.42,90876.30,908.28,0.0,0.0,0.0
352864,2,352864,52,-9.-7,5.13,0.79,0.3,0.-5,0.-11,6.43,9.41,90877.43,908.67,0.0,0.0,0.0
352910,2,352910,46,-9.-80,4.16,1.52,0.5,0.-25,0.-9,6.31,9.41,90875.25,908.28,0.0,0.0,0.0
352953,2,352953,43,-8.-88,4.41,0.86,0.5,0.0,0.-10,6.50,9.41,90880.59,907.79,0.0,0.0,0.0
352999,2,352999,46,-9.-31,3.65,1.32,0.6,0.-17,0.-12,6.37,9.41,90876.30,908.48,0.0,0.0,0.0
353045,2,353045,46,-9.-44,3.38,1.10,0.3,0.-6,0.-6,6.43,9.42,90878.41,908.68,0.0,0.0,0.0
353091,2,353091,46,-8.-42,2.90,1.31,0.5,0.-13,0.-9,6.31,9.41,90876.23,908.58,0.0,0.0,0.0
353137,2,353137,46,-10.-66,5.5,1.82,0.7,0.-28,0.-17,6.37,9.41,90879.46,908.68,0.0,0.0,0.0
353186,2,353186,49,-9.-99,2.32,1.9,0.4,0.-21,0.-11,6.37,9.42,90877.35,908.67,0.0,0.0,0.0
353232,2,353232,46,-9.-10,3.26,1.66,0.3,0.-14,0.-8,6.37,9.42,90877.35,908.48,0.0,0.0,0.0
353278,2,353278,46,-8.-96,3.22,0.87,0.3,0.-14,0.-9,6.37,9.42,90874.4,908.38,0.0,0.0,0.0
353325,2,353325,47,-9.-44,2.89,1.0,0.5,0.11,0.-8,6.50,9.41,90875.17,908.68,0.0,0.0,0.0
353376,2,353376,51,-9.-27,3.2,1.30,0.4,0.-20,0.-7,6.37,9.41,90876.23,909.7,0.0,0.0,0.0
353422,2,353422,46,-9.-32,3.6,1.18,0.5,0.-7,0.-5,6.37,9.42,90877.28,908.68,0.0,0.0,0.0
353465,2,353465,43,-9.-41,3.9,1.31,0.6,0.-10,0.-4,6.31,9.42,90875.17,908.39,0.0,0.0,0.0
353511,2,353511,46,-9.-49,3.8,1.32,0.6,0.-11,0.0,6.37,9.43,90880.59,908.78,0.0,0.0,0.0
353557,2,353557,46,-9.-43,3.18,1.21,0.7,0.-6,0.1,6.37,9.43,90880.59,908.98,0.0,0.0,0.0
353603,2,353603,46,-9.-37,3.26,1.19,0.7,0.-8,0.3,6.43,9.42,90875.10,908.29,0.0,0.0,0.0
353649,2,353649,46,-9.-34,3.33,1.11,0.7,0.-8,0.5,6.43,9.43,90879.46,908.68,0.0,0.0,0.0
353695,2,353695,46,-9.-38,3.28,1.31,0.6,0.-9,0.8,6.43,9.42,90878.41,908.78,0.0,0.0,0.0
353738,2,353738,43,-9.-7,3.52,1.8,0.9,0.-8,0.9,6.43,9.41,90882.77,908.29,0.0,0.0,0.0
353784,2,353784,46,-9.-27,3.52,0.90,0.7,0.-11,0.11,6.43,9.42,90877.35,908.58,0.0,0.0,0.0
353830,2,353830,46,-8.-64,3.83,0.93,0.6,0.-6,0.11,6.43,9.41,90875.10,908.98,0.0,0.0,0.0
353881,2,353881,51,-8.-71,3.79,1.46,0.6,0.-11,0.8,6.43,9.42,90876.23,908.58,0.0,0.0,0.0
353927,2,353927,46,-9.-57,3.71,1.17,0.8,0.-8,0.10,6.43,9.42,90875.17,908.39,0.0,0.0,0.0
353973,2,353973,46,-9.-20,3.83,1.27,0.9,0.-9,0.14,6.37,9.41,90876.23,908.28,0.0,0.0,0.0
354016,2,354016,43,-9.-15,3.96,1.13,0.10,0.-10,0.17,6.50,9.42,90878.41,908.98,0.0,0.0,0.0
354062,2,354062,46,-8.-87,4.7,1.22,0.10,0.-7,0.19,6.43,9.42,90876.23,908.48,0.0,0.0,0.0
354108,2,354108,46,-8.-84,4.13,1.11,0.10,0.-9,0.21,6.43,9.41,90874.4,908.88,0.0,0.0,0.0
354154,2,354154,46,-9.-3,4.30,0.91,0.10,0.-7,0.22,6.50,9.41,90878.41,908.29,0.0,0.0,0.0
354200,2,354200,46,-8.-57,4.53,0.89,0.10,0.-12,0.25,6.43,9.42,90872.92,909.17,0.0,0.0,0.0
354250,2,354250,50,-9.-6,4.59,0.58,0.8,0.-5,0.27,6.37,9.42,90871.94,908.58,0.0,0.0,0.0
354296,2,354296,46,-8.-54,4.81,1.38,0.7,0.-13,0.29,6.43,9.41,90877.35,908.78,0.0,0.0,0.0
354343,2,354343,47,-8.-59,4.88,1.30,0.7,0.-9,0.32,6.43,9.43,90871.86,909.37,0.0,0.0,0.0
354404,2,354404,61,-8.-47,5.7,0.95,0.9,0.-9,0.35,6.43,9.41,90873.7,909.7,0.0,0.0,0.0
354450,2,354450,46,-8.-6,5.37,1.7,0.10,0.-10,0.35,6.37,9.41,90867.58,908.58,0.0,0.0,0.0
354496,2,354496,46,-7.-88,5.49,1.16,0.10,0.-11,0.36,6.43,9.41,90875.17,908.49,0.0,0.0,0.0
354539,2,354539,43,-7.-64,5.72,1.6,0.11,0.-8,0.35,6.37,9.42,90877.28,908.48,0.0,0.0,0.0
354585,2,354585,46,-7.-71,5.94,1.33,0.13,0.-10,0.34,6.43,9.43,90876.23,909.37,0.0,0.0,0.0
354631,2,354631,46,-7.-54,6.17,1.0,0.14,0.-9,0.32,6.37,9.42,90876.23,908.78,0.0,0.0,0.0
354677,2,354677,46,-7.-37,6.16,0.96,0.14,0.-8,0.33,6.37,9.43,90876.15,908.48,0.0,0.0,0.0
354723,2,354723,46,-7.-37,6.48,0.94,0.15,0.-9,0.31,6.43,9.43,90870.74,908.68,0.0,0.0,0.0
354769,2,354769,46,-7.-23,6.54,0.59,0.13,0.-5,0.32,6.43,9.42,90878.41,908.88,0.0,0.0,0.0
354812,2,354812,43,-7.-5,6.70,1.4,0.12,0.-11,0.31,6.43,9.42,90882.70,908.59,0.0,0.0,0.0
354858,2,354858,46,-6.-97,6.82,0.52,0.11,0.-6,0.31,6.50,9.42,90877.21,908.49,0.0,0.0,0.0
354910,2,354910,52,-6.-74,7.6,0.91,0.10,0.-8,0.30,6.43,9.42,90874.4,909.48,0.0,0.0,0.0
354956,2,354956,46,-6.-45,7.16,0.87,0.10,0.-12,0.30,6.37,9.42,90878.41,909.8,0.0,0.0,0.0
355002,2,355002,46,-6.-29,7.39,0.68,0.10,0.-10,0.26,6.37,9.43,90876.15,908.78,0.0,0.0,0.0
355048,2,355048,46,-6.-23,7.36,0.59,0.8,0.-11,0.23,6.37,9.42,90872.92,908.78,0.0,0.0,0.0
355091,2,355091,43,-6.-61,7.46,0.68,0.8,0.-9,0.22,6.37,9.42,90871.86,909.8,0.0,0.0,0.0
355137,2,355137,46,-6.-39,7.55,0.82,0.7,0.-10,0.25,6.37,9.42,90877.28,909.28,0.0,0.0,0.0
355183,2,355183,46,-6.-48,7.58,1.0,0.8,0.-11,0.26,6.37,9.42,90874.4,908.89,0.0,0.0,0.0
355229,2,355229,46,-6.-3,7.42,0.89,0.10,0.-10,0.29,6.37,9.42,90879.39,908.38,0.0,0.0,0.0
355275,2,355275,46,-5.-92,8.7,0.32,0.7,0.-11,0.27,6.43,9.42,90878.33,908.49,0.0,0.0,0.0
355324,2,355324,49,-5.-86,7.93,0.82,0.7,0.-10,0.26,6.37,9.42,90870.74,908.58,0.0,0.0,0.0
355371,2,355371,47,-5.-50,8.1,0.51,0.5,0.-9,0.24,6.37,9.42,90882.70,908.89,0.0,0.0,0.0
355422,2,355422,51,-5.-88,8.14,1.2,0.4,0.-14,0.27,6.37,9.43,90874.4,907.90,0.0,0.0,0.0
355468,2,355468,46,-5.-33,8.47,1.27,0.8,0.-11,0.28,6.37,9.43,90875.10,908.68,0.0,0.0,0.0
355514,2,355514,46,-5.-42,8.26,0.72,0.11,0.-8,0.30,6.43,9.43,90867.42,908.69,0.0,0.0,0.0
355560,2,355560,46,-5.-9,8.50,0.65,0.12,0.-10,0.30,6.37,9.42,90881.57,908.88,0.0,0.0,0.0
355603,2,355603,43,-4.-76,8.61,0.53,0.11,0.-10,0.31,6.37,9.42,90874.4,908.49,0.0,0.0,0.0
355649,2,355649,46,-4.-47,8.69,0.35,0.9,0.-8,0.30,6.37,9.42,90875.10,908.88,0.0,0.0,0.0
355695,2,355695,46,-4.-28,8.81,0.53,0.7,0.-11,0.27,6.31,9.43,90865.25,908.98,0.0,0.0,0.0
355741,2,355741,46,-4.-47,8.84,0.80,0.7,0.-11,0.26,6.37,9.42,90882.70,909.28,0.0,0.0,0.0
355787,2,355787,46,-4.-46,8.98,0.78,0.9,0.-9,0.27,6.37,9.43,90880.51,909.9,0.0,0.0,0.0
355833,2,355833,46,-4.-35,8.88,0.67,0.11,0.-9,0.28,6.31,9.43,90875.10,908.68,0.0,0.0,0.0
355876,2,355876,43,-3.-95,9.8,0.51,0.11,0.-9,0.29,6.37,9.42,90871.86,909.18,0.0,0.0,0.0
355927,2,355927,51,-3.-73,9.18,0.43,0.10,0.-9,0.29,6.43,9.42,90881.64,908.88,0.0,0.0,0.0
355973,2,355973,46,-3.-46,9.22,0.46,0.10,0.-10,0.27,6.25,9.43,90878.33,908.59,0.0,0.0,0.0
356019,2,356019,46,-3.-66,9.24,0.44,0.10,0.-9,0.27,6.37,9.43,90877.28,909.28,0.0,0.0,0.0
356065,2,356065,46,-3.-59,9.29,0.49,0.10,0.-10,0.28,6.37,9.43,90872.84,908.89,0.0,0.0,0.0
356126,2,356126,61,-3.-44,9.41,0.44,0.9,0.-9,0.31,6.37,9.41,90870.81,909.26,0.0,0.0,0.0
356172,2,356172,46,-3.-11,9.50,0.37,0.9,0.-10,0.34,6.37,9.42,90869.68,909.8,0.0,0.0,0.0
356218,2,356218,46,-2.-71,9.56,0.45,0.9,0.-12,0.33,6.37,9.43,90869.68,908.49,0.0,0.0,0.0
356264,2,356264,46,-2.-47,9.59,0.31,0.8,0.-9,0.32,6.31,9.43,90871.86,908.98,0.0,0.0,0.0
356310,2,356310,46,-2.-21,9.64,0.33,0.8,0.-10,0.31,6.37,9.43,90873.97,909.48,0.0,0.0,0.0
356356,2,356356,46,-1.-94,9.71,0.47,0.8,0.-10,0.30,6.37,9.43,90872.84,908.50,0.0,0.0,0.0
356403,2,356403,47,-1.-73,9.72,0.43,0.9,0.-9,0.28,6.37,9.43,90873.97,909.48,0.0,0.0,0.0
356463,2,356463,60,-1.-64,9.78,0.27,0.10,0.-9,0.25,6.37,9.42,90873.0,908.98,0.0,0.0,0.0
356509,2,356509,46,-1.-38,9.78,0.17,0.10,0.-6,0.25,6.43,9.42,90874.4,909.28,0.0,0.0,0.0
356555,2,356555,46,-1.-33,9.85,0.3,0.9,0.-6,0.23,6.43,9.43,90870.74,909.19,0.0,0.0,0.0
356601,2,356601,46,-1.-15,9.86,0.21,0.8,0.-11,0.21,6.37,9.43,90871.71,909.18,0.0,0.0,0.0
356647,2,356647,46,0.-90,9.64,0.29,0.7,0.-11,0.21,6.31,9.43,90870.74,908.99,0.0,0.0,0.0
356691,2,356691,44,-1.0,9.81,0.28,0.7,0.-11,0.20,6.37,9.43,90867.42,909.38,0.0,0.0,0.0
356737,2,356737,46,0.-87,9.92,0.35,0.8,0.-11,0.19,6.37,9.43,90878.33,909.39,0.0,0.0,0.0
356783,2,356783,46,0.-68,9.97,0.27,0.8,0.-10,0.19,6.37,9.44,90873.97,908.99,0.0,0.0,0.0
356829,2,356829,46,0.-49,9.96,0.18,0.9,0.-9,0.17,6.37,9.43,90872.84,908.70,0.0,0.0,0.0
356875,2,356875,46,0.-21,10.1,0.14,0.8,0.-9,0.16,6.37,9.43,90879.39,908.79,0.0,0.0,0.0
356921,2,356921,46,0.-15,10.5,0.-1,0.8,0.-9,0.14,6.43,9.43,90873.97,908.69,0.0,0.0,0.0
356970,2,356970,49,0.-9,10.4,0.11,0.7,0.-10,0.11,6.37,9.43,90874.4,909.9,0.0,0.0,0.0
357016,2,357016,46,0.-8,10.4,0.10,0.6,0.-10,0.9,6.37,9.44,90882.62,908.89,0.0,0.0,0.0
357062,2,357062,46,0.-8,9.99,0.23,0.5,0.-10,0.8,6.37,9.43,90869.60,908.89,0.0,0.0,0.0
357108,2,357108,46,0.-2,10.6,0.25,0.6,0.-10,0.6,6.37,9.44,90871.79,909.0,0.0,0.0,0.0
357154,2,357154,46,0.15,10.3,0.22,0.7,0.-8,0.6,6.37,9.44,90868.48,908.89,0.0,0.0,0.0
357200,2,357200,46,0.21,10.9,0.12,0.7,0.-9,0.5,6.37,9.44,90866.30,908.89,0.0,0.0,0.0
357243,2,357243,43,0.37,9.96,0.10,0.7,0.-8,0.4,6.43,9.43,90875.3,908.69,0.0,0.0,0.0
357289,2,357289,46,0.-11,9.96,0.8,0.6,0.-8,0.-6,6.43,9.43,90872.84,909.0,0.0,0.0,0.0
357335,2,357335,46,0.25,9.98,0.-1,0.5,0.-10,0.-5,6.37,9.44,90879.39,909.0,0.0,0.0,0.0
357381,2,357381,46,0.27,10.1,0.-5,0.3,0.-11,0.-9,6.31,9.43,90875.3,909.29,0.0,0.0,0.0
357428,2,357428,47,0.66,10.6,0.10,0.3,0.-8,0.-11,6.37,9.44,90876.0,908.70,0.0,0.0,0.0
357479,2,357479,51,0.-14,10.3,0.24,0.3,0.-10,0.-12,6.31,9.44,90873.97,908.89,0.0,0.0,0.0
357522,2,357522,43,0.26,10.9,0.12,0.4,0.-5,0.-12,6.37,9.44,90876.15,909.19,0.0,0.0,0.0
357568,2,357568,46,0.1,10.1,0.38,0.5,0.-9,0.-11,6.31,9.44,90876.7,908.59,0.0,0.0,0.0
357614,2,357614,46,0.3,9.95,0.-1,0.5,0.-6,0.-10,6.37,9.44,90873.89,909.49,0.0,0.0,0.0
357660,2,357660,46,0.15,9.98,0.28,0.5,0.-7,0.-10,6.31,9.45,90872.77,909.19,0.0,0.0,0.0
357706,2,357706,46,0.0,10.2,0.30,0.6,0.-13,0.-10,6.25,9.44,90869.53,908.80,0.0,0.0,0.0
357755,2,357755,49,0.25,10.4,0.0,0.7,0.-7,0.-10,6.31,9.44,90863.7,909.29,0.0,0.0,0.0
357801,2,357801,46,0.22,9.97,0.13,0.7,0.-12,0.-11,6.37,9.44,90874.95,909.29,0.0,0.0,0.0
357847,2,357847,46,0.25,10.2,0.-10,0.6,0.-9,0.-12,6.31,9.44,90877.13,908.80,0.0,0.0,0.0
357893,2,357893,46,0.12,10.5,0.-8,0.5,0.-8,0.-12,6.37,9.44,90872.77,908.60,0.0,0.0,0.0
357939,2,357939,46,0.9,10.2,0.-10,0.5,0.-8,0.-13,6.37,9.44,90879.31,909.29,0.0,0.0,0.0
357990,2,357990,51,0.0,9.99,0.-10,0.3,0.-7,0.-13,6.37,9.43,90877.13,907.71,0.0,0.0,0.0
358033,2,358033,43,0.1,9.99,0.14,0.3,0.-7,0.-13,6.37,9.45,90873.89,908.99,0.0,0.0,0.0
358079,2,358079,46,0.-1,10.2,0.14,0.3,0.-11,0.-12,6.37,9.44,90873.82,909.59,0.0,0.0,0.0
358125,2,358125,46,0.0,9.99,0.2,0.4,0.-9,0.-12,6.31,9.45,90877.13,909.0,0.0,0.0,0.0
358171,2,358171,46,0.10,10.5,0.18,0.4,0.-9,0.-12,6.37,9.45,90877.13,909.19,0.0,0.0,0.0
358217,2,358217,46,0.-2,10.2,0.8,0.4,0.-8,0.-12,6.31,9.45,90876.0,908.90,0.0,0.0,0.0
358263,2,358263,46,0.6,10.4,0.15,0.4,0.-9,0.-13,6.37,9.45,90878.10,909.40,0.0,0.0,0.0
358306,2,358306,43,0.-8,10.1,0.10,0.3,0.-9,0.-12,6.37,9.45,90871.64,909.10,0.0,0.0,0.0
358352,2,358352,46,0.-6,10.3,0.6,0.4,0.-8,0.-12,6.31,9.45,90874.87,908.41,0.0,0.0,0.0
358398,2,358398,46,0.-2,10.6,0.17,0.4,0.-10,0.-13,6.31,9.45,90872.77,908.80,0.0,0.0,0.0
358445,2,358445,47,0.-11,9.99,0.9,0.4,0.-9,0.-12,6.37,9.45,90877.6,909.10,0.0,0.0,0.0
358496,2,358496,51,0.0,10.4,0.13,0.3,0.-10,0.-13,6.31,9.44,90871.64,908.60,0.0,0.0,0.0
358542,2,358542,46,0.-13,9.99,0.13,0.4,0.-10,0.-13,6.37,9.44,90866.30,908.60,0.0,0.0,0.0
358589,2,358589,47,0.-11,10.2,0.10,0.4,0.-9,0.-12,6.31,9.44,90876.7,909.0,0.0,0.0,0.0
358635,2,358635,46,0.-19,10.4,0.21,0.5,0.-9,0.-13,6.31,9.44,90874.95,908.70,0.0,0.0,0.0
358681,2,358681,46,0.-12,10.1,0.16,0.5,0.-9,0.-12,6.31,9.44,90871.64,909.89,0.0,0.0,0.0
358727,2,358727,46,0.-20,10.6,0.11,0.6,0.-8,0.-11,6.37,9.45,90876.0,909.39,0.0,0.0,0.0
358773,2,358773,46,0.-26,9.99,0.5,0.6,0.-9,0.-11,6.25,9.45,90867.35,909.30,0.0,0.0,0.0
358819,2,358819,46,0.-18,10.7,0.4,0.5,0.-9,0.-10,6.37,9.44,90871.71,908.70,0.0,0.0,0.0
358862,2,358862,43,0.-19,10.6,0.4,0.4,0.-9,0.-10,6.37,9.44,90879.31,909.0,0.0,0.0,0.0
358908,2,358908,46,0.-16,10.4,0.5,0.4,0.-9,0.-10,6.31,9.45,90877.6,908.80,0.0,0.0,0.0
358954,2,358954,46,0.-19,10.8,0.22,0.4,0.-10,0.-10,6.37,9.45,90870.59,908.80,0.0,0.0,0.0
359014,2,359014,60,0.-11,10.1,0.13,0.4,0.-9,0.-9,6.37,9.44,90873.89,909.28,0.0,0.0,0.0
359060,2,359060,46,0.-3,10.1,0.19,0.5,0.-9,0.-10,6.37,9.45,90874.95,908.60,0.0,0.0,0.0
359106,2,359106,46,0.-9,9.97,0.18,0.5,0.-8,0.-10,6.31,9.44,90872.84,909.9,0.0,0.0,0.0
359149,2,359149,43,0.-10,10.4,0.17,0.5,0.-9,0.-10,6.31,9.44,90868.48,909.0,0.0,0.0,0.0
359195,2,359195,46,0.-22,10.2,0.10,0.6,0.-9,0.-10,6.31,9.45,90880.36,908.20,0.0,0.0,0.0
359241,2,359241,46,0.-13,10.4,0.6,0.5,0.-8,0.-9,6.37,9.45,90874.95,909.19,0.0,0.0,0.0
359287,2,359287,46,0.-19,10.1,0.0,0.4,0.-8,0.-9,6.31,9.44,90869.46,908.50,0.0,0.0,0.0
359333,2,359333,46,0.-3,10.2,0.2,0.3,0.-8,0.-10,6.31,9.46,90872.69,908.60,0.0,0.0,0.0
359382,2,359382,49,0.1,10.4,0.8,0.3,0.-8,0.-11,6.25,9.45,90870.59,909.10,0.0,0.0,0.0
359428,2,359428,46,0.0,10.2,0.16,0.4,0.-10,0.-12,6.37,9.45,90877.6,909.10,0.0,0.0,0.0
359475,2,359475,47,0.-4,10.0,0.21,0.5,0.-9,0.-13,6.31,9.45,90879.24,908.70,0.0,0.0,0.0
359527,2,359527,52,0.-10,9.94,0.6,0.5,0.-9,0.-14,6.25,9.45,90878.18,908.80,0.0,0.0,0.0
359573,2,359573,46,0.-23,10.0,0.-3,0.5,0.-5,0.-14,6.25,9.44,90870.51,909.10,0.0,0.0,0.0
359619,2,359619,46,0.-21,10.4,0.7,0.4,0.-9,0.-13,6.31,9.45,90879.24,908.31,0.0,0.0,0.0
359662,2,359662,43,0.-35,10.0,0.2,0.3,0.-10,0.-12,6.31,9.45,90873.82,909.10,0.0,0.0,0.0
359708,2,359708,46,0.-23,9.99,0.6,0.3,0.-9,0.-13,6.37,9.45,90871.64,908.51,0.0,0.0,0.0
359754,2,359754,46,0.-48,9.99,0.13,0.3,0.-10,0.-12,6.31,9.45,90874.80,909.0,0.0,0.0,0.0
359800,2,359800,46,0.-20,10.5,0.16,0.4,0.-8,0.-12,6.25,9.46,90875.92,909.50,0.0,0.0,0.0
359846,2,359846,46,0.-40,10.1,0.21,0.5,0.-10,0.-12,6.31,9.45,90873.82,909.30,0.0,0.0,0.0
359892,2,359892,46,0.-33,10.5,0.2,0.5,0.-7,0.-11,6.37,9.45,90878.18,908.61,0.0,0.0,0.0
359935,2,359935,43,0.-37,10.2,0.4,0.4,0.-9,0.-10,6.31,9.45,90878.18,908.71,0.0,0.0,0.0
359981,2,359981,46,0.-37,10.0,0.2,0.4,0.-10,0.-10,6.31,9.45,90875.92,909.10,0.0,0.0,0.0
360032,2,360032,51,0.-31,10.1,0.2,0.4,0.-8,0.-9,6.37,9.44,90876.0,908.90,0.0,0.0,0.0
360078,2,360078,46,0.-25,10.4,0.19,0.4,0.-9,0.-8,6.25,9.45,90872.77,909.20,0.0,0.0,0.0
360124,2,360124,46,0.-14,10.5,0.36,0.4,0.-11,0.-8,6.37,9.45,90876.0,909.21,0.0,0.0,0.0
360170,2,360170,46,0.-18,10.1,0.-3,0.5,0.-6,0.-10,6.37,9.45,90870.59,909.0,0.0,0.0,0.0
360213,2,360213,43,0.-20,10.1,0.18,0.5,0.-10,0.-9,6.37,9.45,90878.10,909.20,0.0,0.0,0.0
360259,2,360259,46,0.-20,9.97,0.-23,0.5,0.-12,0.-10,6.31,9.45,90880.36,908.80,0.0,0.0,0.0
360305,2,360305,46,0.-42,9.97,0.9,0.5,0.-8,0.-11,6.31,9.45,90873.82,908.31,0.0,0.0,0.0
360351,2,360351,46,0.-14,10.5,0.7,0.3,0.-11,0.-11,6.31,9.45,90877.6,909.40,0.0,0.0,0.0
360397,2,360397,46,0.-32,9.91,0.16,0.3,0.-7,0.-10,6.37,9.45,90872.69,909.0,0.0,0.0,0.0
360443,2,360443,46,0.-60,10.4,0.15,0.4,0.-9,0.-11,6.43,9.45,90870.51,909.30,0.0,0.0,0.0
360487,2,360487,44,0.-36,10.1,0.22,0.4,0.-10,0.-9,6.43,9.45,90878.10,909.11,0.0,0.0,0.0
360538,2,360538,51,0.-28,9.98,0.21,0.4,0.-12,0.-10,6.43,9.45,90868.33,909.0,0.0,0.0,0.0
360584,2,360584,46,0.-18,10.6,0.-1,0.5,0.-8,0.-11,6.43,9.45,90871.64,908.80,0.0,0.0,0.0
360630,2,360630,46,0.-18,10.4,0.0,0.5,0.-9,0.-12,6.31,9.45,90871.64,908.91,0.0,0.0,0.0
360676,2,360676,46,0.-35,10.1,0.1,0.4,0.-10,0.-12,6.31,9.46,90870.51,909.0,0.0,0.0,0.0
360725,2,360725,49,0.-30,10.1,0.0,0.4,0.-7,0.-13,6.37,9.45,90880.29,909.11,0.0,0.0,0.0
360771,2,360771,46,0.-36,10.3,0.23,0.3,0.-9,0.-13,6.37,9.46,90879.16,908.91,0.0,0.0,0.0
360817,2,360817,46,0.-54,9.93,0.6,0.4,0.-9,0.-12,6.31,9.46,90869.46,909.0,0.0,0.0,0.0
360863,2,360863,46,0.-47,10.3,0.11,0.4,0.-9,0.-11,6.37,9.46,90868.25,908.70,0.0,0.0,0.0
360909,2,360909,46,0.-45,10.0,0.17,0.3,0.-10,0.-10,6.25,9.45,90869.39,908.51,0.0,0.0,0.0
360955,2,360955,46,0.-36,10.2,0.13,0.3,0.-9,0.-9,6.31,9.46,90874.72,908.81,0.0,0.0,0.0
360998,2,360998,43,0.-57,10.5,0.18,0.3,0.-9,0.-8,6.31,9.46,90874.80,908.32,0.0,0.0,0.0
361060,2,361060,62,0.-67,9.97,0.17,0.3,0.-10,0.-6,6.37,9.45,90871.64,908.31,0.0,0.0,0.0
361106,2,361106,46,0.-64,10.1,0.24,0.4,0.-9,0.-2,6.31,9.45,90871.57,909.10,0.0,0.0,0.0
361152,2,361152,46,0.-64,10.0,0.33,0.5,0.-10,0.0,6.31,9.46,90871.57,909.1,0.0,0.0,0.0
361198,2,361198,46,0.-50,9.95,0.20,0.6,0.-9,0.1,6.37,9.45,90870.51,908.41,0.0,0.0,0.0
361244,2,361244,46,0.-39,9.97,0.5,0.6,0.-8,0.3,6.43,9.45,90874.87,909.0,0.0,0.0,0.0
361287,2,361287,43,0.-38,9.98,0.14,0.6,0.-10,0.5,6.31,9.45,90872.62,909.50,0.0,0.0,0.0
361333,2,361333,46,0.-20,10.1,0.0,0.6,0.-8,0.6,6.43,9.45,90872.69,908.31,0.0,0.0,0.0
361379,2,361379,46,0.0,10.0,0.4,0.5,0.-9,0.7,6.25,9.46,90878.10,909.40,0.0,0.0,0.0
361425,2,361425,46,0.10,10.3,0.14,0.5,0.-9,0.7,6.31,9.46,90874.80,909.51,0.0,0.0,0.0
361471,2,361471,46,0.19,10.1,0.8,0.5,0.-11,0.6,6.31,9.46,90871.57,909.21,0.0,0.0,0.0
361518,2,361518,47,0.33,10.2,0.-9,0.4,0.-6,0.6,6.31,9.45,90873.75,908.80,0.0,0.0,0.0
361567,2,361567,49,0.42,10.1,0.11,0.4,0.-8,0.4,6.31,9.45,90867.28,909.0,0.0,0.0,0.0
361613,2,361613,46,0.58,10.1,0.9,0.4,0.-9,0.3,6.31,9.45,90870.51,908.51,0.0,0.0,0.0
361659,2,361659,46,0.94,10.3,0.-44,0.3,0.-4,0.1,6.31,9.45,90875.92,908.91,0.0,0.0,0.0
361705,2,361705,46,1.22,10.22,0.56,0.-1,0.-31,0.0,6.31,9.45,90873.75,908.71,0.0,0.0,0.0
361751,2,361751,46,0.59,10.24,0.-28,0.-3,0.15,0.-3,6.37,9.45,90877.6,908.61,0.0,0.0,0.0
361797,2,361797,46,0.78,10.1,0.74,0.0,0.-37,0.-6,6.37,9.46,90875.92,909.40,0.0,0.0,0.0
361840,2,361840,43,0.83,10.11,0.63,0.4,0.-8,0.-7,6.37,9.46,90870.51,909.11,0.0,0.0,0.0
361886,2,361886,46,0.60,10.5,0.36,0.7,0.-4,0.-8,6.31,9.45,90868.25,908.91,0.0,0.0,0.0
361932,2,361932,46,0.74,10.5,0.-5,0.7,0.-5,0.-8,6.43,9.46,90878.3,909.1,0.0,0.0,0.0
361978,2,361978,46,0.64,9.99,0.-1,0.6,0.-8,0.-9,6.37,9.47,90875.85,908.52,0.0,0.0,0.0
362024,2,362024,46,0.50,9.96,0.-4,0.4,0.-10,0.-10,6.37,9.45,90875.85,908.81,0.0,0.0,0.0
362075,2,362075,51,0.74,10.4,0.16,0.2,0.-11,0.-10,6.37,9.45,90880.29,908.61,0.0,0.0,0.0
362118,2,362118,43,0.54,10.4,0.18,0.2,0.-8,0.-10,6.37,9.46,90868.33,909.60,0.0,0.0,0.0
362164,2,362164,46,0.63,9.99,0.43,0.3,0.-11,0.-11,6.31,9.45,90873.82,908.91,0.0,0.0,0.0
362210,2,362210,46,0.51,10.3,0.26,0.5,0.-8,0.-11,6.31,9.46,90869.39,909.31,0.0,0.0,0.0
362256,2,362256,46,0.38,9.98,0.45,0.6,0.-9,0.-10,6.31,9.46,90878.3,908.42,0.0,0.0,0.0
362302,2,362302,46,0.62,10.2,0.15,0.7,0.-7,0.-10,6.31,9.46,90870.43,908.71,0.0,0.0,0.0
362348,2,362348,46,0.51,10.5,0.14,0.6,0.-7,0.-9,6.31,9.46,90878.10,908.81,0.0,0.0,0.0
362391,2,362391,43,0.67,10.0,0.1,0.6,0.-9,0.-10,6.31,9.46,90874.80,908.51,0.0,0.0,0.0
362437,2,362437,46,0.58,10.1,0.7,0.4,0.-11,0.-10,6.31,9.46,90868.25,908.12,0.0,0.0,0.0
362483,2,362483,46,0.60,10.2,0.0,0.3,0.-10,0.-10,6.37,9.45,90870.43,908.81,0.0,0.0,0.0
362530,2,362530,47,0.72,10.0,0.22,0.3,0.-10,0.-9,6.37,9.47,90874.80,909.11,0.0,0.0,0.0
362581,2,362581,51,0.52,10.4,0.31,0.4,0.-10,0.-10,6.31,9.46,90875.92,908.81,0.0,0.0,0.0
362630,2,362630,49,0.47,10.4,0.21,0.5,0.-9,0.-10,6.31,9.46,90880.29,908.72,0.0,0.0,0.0
362676,2,362676,46,0.62,10.3,0.24,0.5,0.-9,0.-10,6.31,9.45,90872.62,908.61,0.0,0.0,0.0
362722,2,362722,46,0.60,9.98,0.18,0.5,0.-9,0.-10,6.37,9.46,90872.62,909.61,0.0,0.0,0.0
362768,2,362768,46,0.53,10.0,0.9,0.5,0.-5,0.-10,6.31,9.46,90867.13,908.61,0.0,0.0,0.0
362814,2,362814,46,0.62,10.1,0.18,0.4,0.-8,0.-10,6.31,9.47,90873.75,909.61,0.0,0.0,0.0
362860,2,362860,46,0.50,10.3,0.5,0.4,0.-9,0.-11,6.37,9.46,90871.49,908.52,0.0,0.0,0.0
362905,2,362905,45,0.56,10.0,0.20,0.4,0.-10,0.-11,6.37,9.47,90874.72,908.91,0.0,0.0,0.0
362951,2,362951,46,0.41,10.2,0.30,0.4,0.-13,0.-11,6.37,9.47,90880.21,908.72,0.0,0.0,0.0
362997,2,362997,46,0.57,9.78,0.23,0.4,0.-10,0.-10,6.31,9.47,90872.62,908.42,0.0,0.0,0.0
363043,2,363043,46,0.53,10.0,0.31,0.5,0.-11,0.-11,6.37,9.47,90871.41,908.82,0.0,0.0,0.0
363105,2,363105,62,0.45,9.98,0.18,0.5,0.-10,0.-10,6.37,9.46,90870.51,908.41,0.0,0.0,0.0
363151,2,363151,46,0.51,10.5,0.15,0.5,0.-9,0.-10,6.37,9.46,90872.77,908.31,0.0,0.0,0.0
363194,2,363194,43,0.51,10.2,0.20,0.4,0.-11,0.-10,6.50,9.45,90875.92,908.91,0.0,0.0,0.0
363240,2,363240,46,0.45,9.98,0.17,0.4,0.-10,0.-10,6.43,9.46,90873.67,908.61,0.0,0.0,0.0
363286,2,363286,46,0.54,10.2,0.19,0.4,0.-7,0.-9,6.37,9.46,90868.17,908.81,0.0,0.0,0.0
363332,2,363332,46,0.50,10.2,0.33,0.4,0.-11,0.-10,6.31,9.46,90878.3,908.61,0.0,0.0,0.0
363378,2,363378,46,0.55,9.99,0.18,0.5,0.-10,0.-10,6.37,9.47,90876.90,909.11,0.0,0.0,0.0
363424,2,363424,46,0.44,10.3,0.22,0.5,0.-8,0.-9,6.31,9.46,90868.40,908.80,0.0,0.0,0.0
363480,2,363480,56,0.52,10.0,0.16,0.5,0.-10,0.-9,6.31,9.45,90874.87,908.91,0.0,0.0,0.0
363526,2,363526,46,0.49,10.1,0.6,0.5,0.-7,0.-9,6.43,9.46,90874.87,908.91,0.0,0.0,0.0
363573,2,363573,47,0.58,9.99,0.18,0.4,0.-8,0.-8,6.37,9.46,90874.80,908.52,0.0,0.0,0.0
363626,2,363626,53,0.54,10.2,0.20,0.4,0.-9,0.-9,6.31,9.46,90879.16,909.30,0.0,0.0,0.0
363672,2,363672,46,0.50,9.97,0.25,0.4,0.-9,0.-9,6.37,9.46,90876.98,908.61,0.0,0.0,0.0
363718,2,363718,46,0.49,10.4,0.29,0.5,0.-9,0.-10,6.31,9.45,90875.92,908.61,0.0,0.0,0.0
363761,2,363761,43,0.61,10.4,0.22,0.5,0.-10,0.-10,6.37,9.46,90873.75,908.81,0.0,0.0,0.0
363807,2,363807,46,0.56,10.1,0.19,0.5,0.-10,0.-10,6.37,9.46,90873.67,908.72,0.0,0.0,0.0
363853,2,363853,46,0.49,10.2,0.14,0.5,0.-9,0.-10,6.37,9.46,90880.21,908.72,0.0,0.0,0.0
363899,2,363899,46,0.57,10.3,0.15,0.4,0.-7,0.-10,6.43,9.46,90873.67,909.31,0.0,0.0,0.0
363945,2,363945,46,0.49,10.5,0.19,0.4,0.-9,0.-10,6.31,9.47,90875.78,909.11,0.0,0.0,0.0
363994,2,363994,49,0.53,9.96,0.20,0.4,0.-10,0.-10,6.31,9.47,90875.85,908.91,0.0,0.0,0.0
364040,2,364040,46,0.49,10.2,0.24,0.4,0.-9,0.-9,6.37,9.47,90873.60,908.42,0.0,0.0,0.0
364086,2,364086,46,0.46,10.2,0.22,0.4,0.-8,0.-10,6.37,9.47,90879.8,907.93,0.0,0.0,0.0
364137,2,364137,51,0.50,10.3,0.19,0.5,0.-7,0.-10,6.37,9.47,90878.3,908.42,0.0,0.0,0.0
364183,2,364183,46,0.56,10.2,0.17,0.5,0.-7,0.-10,6.31,9.47,90875.85,908.12,0.0,0.0,0.0
364229,2,364229,46,0.52,10.2,0.21,0.5,0.-10,0.-10,6.50,9.46,90869.31,908.72,0.0,0.0,0.0
364272,2,364272,43,0.69,10.3,0.18,0.5,0.-9,0.-10,6.43,9.48,90876.90,908.43,0.0,0.0,0.0
364318,2,364318,46,0.30,10.10,0.29,0.4,0.-6,0.-10,6.37,9.47,90874.64,908.92,0.0,0.0,0.0
364364,2,364364,46,0.55,10.6,0.14,0.4,0.-1,0.-10,6.37,9.48,90879.8,909.2,0.0,0.0,0.0
364410,2,364410,46,0.42,10.5,0.29,0.5,0.-9,0.-9,6.43,9.47,90873.60,908.52,0.0,0.0,0.0
364456,2,364456,46,0.48,9.97,0.3,0.5,0.-8,0.-10,6.37,9.48,90873.60,909.12,0.0,0.0,0.0
364502,2,364502,46,0.66,10.1,0.23,0.5,0.-8,0.-8,6.37,9.47,90874.57,909.42,0.0,0.0,0.0
364545,2,364545,43,0.20,9.94,0.15,0.5,0.-12,0.-10,6.31,9.48,90875.78,908.72,0.0,0.0,0.0
364592,2,364592,47,0.75,9.96,0.16,0.5,0.-8,0.-9,6.37,9.47,90876.83,908.83,0.0,0.0,0.0
364643,2,364643,51,0.46,10.4,0.10,0.5,0.-8,0.-9,6.31,9.47,90872.54,908.42,0.0,0.0,0.0
364689,2,364689,46,0.40,9.97,0.19,0.5,0.-10,0.-11,6.43,9.47,90875.78,908.62,0.0,0.0,0.0
364735,2,364735,46,0.63,10.0,0.17,0.5,0.-10,0.-11,6.37,9.48,90880.7,909.2,0.0,0.0,0.0
364781,2,364781,46,0.44,9.98,0.12,0.4,0.-6,0.-11,6.37,9.48,90880.14,908.92,0.0,0.0,0.0
364824,2,364824,43,0.64,9.94,0.2,0.4,0.-9,0.-12,6.37,9.47,90873.67,909.11,0.0,0.0,0.0
364870,2,364870,46,0.47,10.2,0.3,0.4,0.-8,0.-12,6.37,9.47,90874.64,908.83,0.0,0.0,0.0
364916,2,364916,46,0.53,10.2,0.18,0.4,0.-10,0.-12,6.37,9.47,90877.96,908.82,0.0,0.0,0.0
364962,2,364962,46,0.55,10.2,0.15,0.3,0.-9,0.-12,6.37,9.48,90871.41,908.92,0.0,0.0,0.0
365008,2,365008,46,0.45,10.4,0.22,0.4,0.-7,0.-13,6.31,9.48,90868.17,909.12,0.0,0.0,0.0
365054,2,365054,46,0.33,10.4,0.22,0.4,0.-8,0.-13,6.37,9.47,90873.60,908.91,0.0,0.0,0.0
365098,2,365098,44,0.34,10.2,0.21,0.4,0.-9,0.-13,6.37,9.47,90872.54,909.11,0.0,0.0,0.0
365159,2,365159,61,0.31,10.2,0.15,0.4,0.-8,0.-11,6.37,9.47,90883.53,908.61,0.0,0.0,0.0
365205,2,365205,46,0.20,9.96,0.19,0.4,0.-8,0.-11,6.31,9.46,90875.85,908.72,0.0,0.0,0.0
365251,2,365251,46,0.42,10.1,0.19,0.4,0.-10,0.-10,6.31,9.46,90873.67,908.42,0.0,0.0,0.0
365297,2,365297,46,0.33,10.2,0.14,0.5,0.-8,0.-10,6.37,9.47,90872.54,908.3,0.0,0.0,0.0
365343,2,365343,46,0.39,10.3,0.12,0.4,0.-9,0.-10,6.37,9.48,90873.67,908.82,0.0,0.0,0.0
365386,2,365386,43,0.38,10.0,0.28,0.4,0.-11,0.-10,6.37,9.47,90873.60,908.62,0.0,0.0,0.0
365432,2,365432,46,0.44,10.0,0.17,0.4,0.-10,0.-10,6.31,9.47,90875.78,908.72,0.0,0.0,0.0
365478,2,365478,46,0.46,9.98,0.13,0.5,0.-7,0.-10,6.37,9.47,90877.96,909.22,0.0,0.0,0.0
365524,2,365524,46,0.43,10.0,0.19,0.4,0.-11,0.-10,6.37,9.47,90876.83,908.23,0.0,0.0,0.0
365570,2,365570,46,0.45,10.5,0.13,0.4,0.-8,0.-11,6.43,9.48,90876.90,908.72,0.0,0.0,0.0
365620,2,365620,50,0.39,10.0,0.20,0.4,0.-7,0.-10,6.37,9.48,90877.96,908.72,0.0,0.0,0.0
365671,2,365671,51,0.27,10.0,0.16,0.4,0.-10,0.-10,6.31,9.47,90875.85,908.91,0.0,0.0,0.0
