millis(),Current_state,Calculated_flight_time,Time_since_last_log,IMU_accel_X,IMU_accel_Y,IMU_accel_Z,IMU_gyro_X,IMU_gyro_Y,IMU_gyro_Z,IMU_temp,BARO_temp,BARO_press,BARO_alt,Orientation_roll,Orientation_pitch,Orientation_yaw
698,2,698,698,9.29,-0.31,3.13,0.4,-0.10,-0.9,5.12,9.64,92894.39,726.81,0.0,0.0,0.0
750,2,750,52,9.29,-0.28,3.17,0.4,-0.8,-0.9,5.31,9.66,92893.21,727.20,0.0,0.0,0.0
796,2,796,46,9.60,-0.7,3.30,0.4,-0.8,-0.11,5.25,9.68,92886.59,726.82,0.0,0.0,0.0
839,2,839,43,8.86,-0.36,2.85,0.4,-0.8,-0.9,5.25,9.69,92897.47,727.31,0.0,0.0,0.0
885,2,885,46,9.24,-0.34,2.88,0.4,-0.10,-0.10,5.25,9.70,92886.52,727.22,0.0,0.0,0.0
931,2,931,46,9.80,-0.37,2.75,0.5,-0.9,-0.11,5.31,9.71,92896.32,726.83,0.0,0.0,0.0
977,2,977,46,9.93,-0.54,2.44,0.0,-0.8,-0.11,5.25,9.70,92893.3,726.73,0.0,0.0,0.0
1024,2,1024,47,9.57,-0.28,3.43,0.0,-0.8,-0.12,5.25,9.72,92897.36,726.73,0.0,0.0,0.0
1070,2,1070,46,9.54,-0.41,3.93,0.2,-0.9,-0.10,5.31,9.72,92893.0,727.22,0.0,0.0,0.0
1113,2,1113,43,9.31,-0.46,3.38,0.3,-0.9,-0.9,5.25,9.71,92890.82,727.3,0.0,0.0,0.0
1159,2,1159,46,9.56,-0.35,3.31,0.4,-0.10,-0.9,5.31,9.72,92892.96,726.74,0.0,0.0,0.0
1205,2,1205,46,9.37,-0.31,3.21,0.4,-0.8,-0.10,5.25,9.72,92884.23,727.13,0.0,0.0,0.0
1256,2,1256,51,9.28,-0.34,3.26,0.4,-0.8,-0.10,5.31,9.72,92890.78,726.93,0.0,0.0,0.0
1302,2,1302,46,9.17,-0.31,3.14,0.4,-0.10,-0.10,5.31,9.73,92890.78,726.94,0.0,0.0,0.0
1348,2,1348,46,9.39,-0.36,3.11,0.4,-0.9,-0.10,5.31,9.72,92895.14,727.42,0.0,0.0,0.0
1391,2,1391,43,9.41,-0.32,3.16,0.4,-0.9,-0.10,5.31,9.72,92891.85,727.42,0.0,0.0,0.0
1437,2,1437,46,9.32,-0.32,3.8,0.4,-0.10,-0.9,5.31,9.72,92892.92,727.3,0.0,0.0,0.0
1483,2,1483,46,9.30,-0.33,3.8,0.4,-0.9,-0.10,5.43,9.73,92894.0,727.33,0.0,0.0,0.0
1529,2,1529,46,9.10,-0.30,3.23,0.4,-0.11,-0.8,5.37,9.73,92894.0,726.74,0.0,0.0,0.0
1575,2,1575,46,9.38,-0.38,3.13,0.6,-0.6,-0.9,5.37,9.74,92891.82,727.3,0.0,0.0,0.0
1621,2,1621,46,9.14,-0.27,3.13,0.6,-0.10,-0.8,5.37,9.73,92887.45,726.64,0.0,0.0,0.0
1664,2,1664,43,9.39,-0.39,3.23,0.4,-0.6,-0.10,5.43,9.74,92899.40,727.13,0.0,0.0,0.0
1710,2,1710,46,9.31,-0.30,3.20,0.3,-0.6,-0.9,5.43,9.75,92889.63,727.13,0.0,0.0,0.0
1761,2,1761,51,9.37,-0.33,3.40,0.5,-0.12,-0.10,5.43,9.74,92889.63,727.43,0.0,0.0,0.0
1807,2,1807,46,9.33,-0.34,3.22,0.5,-0.11,-0.10,5.50,9.74,92889.63,727.23,0.0,0.0,0.0
1853,2,1853,46,9.40,-0.35,3.15,0.3,-0.6,-0.8,5.56,9.75,92896.10,727.14,0.0,0.0,0.0
1899,2,1899,46,9.35,-0.35,3.13,0.3,-0.6,-0.11,5.43,9.75,92886.37,727.43,0.0,0.0,0.0
1942,2,1942,43,9.28,-0.38,3.7,0.4,-0.11,-0.10,5.50,9.75,92891.78,726.94,0.0,0.0,0.0
1988,2,1988,46,9.30,-0.41,3.1,0.4,-0.9,-0.10,5.50,9.75,92893.96,726.94,0.0,0.0,0.0
2035,2,2035,47,9.44,-0.33,3.3,0.3,-0.9,-0.10,5.50,9.76,92892.85,727.14,0.0,0.0,0.0
2081,2,2081,46,9.41,-0.34,3.33,0.4,-0.10,-0.10,5.56,9.77,92890.67,727.14,0.0,0.0,0.0
2127,2,2127,46,9.44,-0.31,3.26,0.4,-0.8,-0.10,5.56,9.76,92884.8,726.46,0.0,0.0,0.0
2173,2,2173,46,9.28,-0.30,3.20,0.4,-0.10,-0.9,5.62,9.77,92896.7,727.14,0.0,0.0,0.0
2216,2,2216,43,8.97,-0.34,2.78,0.4,-0.8,-0.9,5.56,9.77,92896.7,727.14,0.0,0.0,0.0
2267,2,2267,51,9.30,-0.27,3.10,0.4,-0.9,-0.10,5.62,9.77,92888.45,727.33,0.0,0.0,0.0
2313,2,2313,46,9.45,-0.31,3.21,0.4,-0.7,-0.10,5.56,9.77,92896.7,727.14,0.0,0.0,0.0
2359,2,2359,46,9.45,-0.36,3.36,0.5,-0.8,-0.11,5.56,9.77,92890.63,726.36,0.0,0.0,0.0
2405,2,2405,46,9.42,-0.19,3.50,0.2,-0.10,-0.5,5.56,9.76,92888.45,726.75,0.0,0.0,0.0
2451,2,2451,46,9.66,-0.51,3.30,0.6,-0.6,-0.13,5.56,9.77,92892.78,726.17,0.0,0.0,0.0
2494,2,2494,43,9.92,0.38,2.73,0.5,-0.27,-0.9,5.56,9.78,92896.3,727.5,0.0,0.0,0.0
2540,2,2540,46,9.80,-0.38,3.5,0.1,-0.9,-0.10,5.56,9.77,92886.22,726.66,0.0,0.0,0.0
2586,2,2586,46,9.34,-0.36,3.48,0.3,-0.8,-0.11,5.56,9.78,92894.96,727.44,0.0,0.0,0.0
2632,2,2632,46,9.51,-0.34,3.46,0.3,-0.9,-0.10,5.56,9.78,92892.78,726.75,0.0,0.0,0.0
2678,2,2678,46,9.37,-0.33,3.6,0.4,-0.10,-0.9,5.62,9.78,92894.96,727.73,0.0,0.0,0.0
2724,2,2724,46,9.36,-0.31,3.24,0.4,-0.8,-0.10,5.56,9.77,92890.59,726.85,0.0,0.0,0.0
2788,2,2788,64,9.45,-0.33,3.18,0.4,-0.9,-0.9,5.56,9.76,92893.92,726.75,0.0,0.0,0.0
2834,2,2834,46,9.26,-0.32,3.19,0.4,-0.7,-0.9,5.50,9.77,92893.89,726.66,0.0,0.0,0.0
2880,2,2880,46,9.32,-0.33,3.18,0.4,-0.9,-0.10,5.56,9.77,92894.96,726.95,0.0,0.0,0.0
2926,2,2926,46,9.35,-0.34,3.40,0.4,-0.10,-0.11,5.56,9.78,92890.59,727.44,0.0,0.0,0.0
2972,2,2972,46,9.42,-0.33,3.13,0.3,-0.7,-0.9,5.50,9.78,92899.29,726.66,0.0,0.0,0.0
3018,2,3018,46,9.22,-0.31,3.44,0.4,-0.10,-0.10,5.62,9.79,92890.56,726.95,0.0,0.0,0.0
3067,2,3067,49,9.50,-0.35,3.41,0.4,-0.8,-0.9,5.62,9.78,92887.30,726.66,0.0,0.0,0.0
3113,2,3113,46,9.24,-0.29,3.6,0.5,-0.10,-0.10,5.56,9.78,92890.56,727.15,0.0,0.0,0.0
3159,2,3159,46,9.49,-0.31,3.24,0.3,-0.7,-0.9,5.62,9.78,92899.29,727.5,0.0,0.0,0.0
3205,2,3205,46,9.32,-0.36,3.2,0.4,-0.5,-0.10,5.62,9.78,92896.3,726.95,0.0,0.0,0.0
3251,2,3251,46,9.20,-0.24,3.1,0.4,-0.9,-0.10,5.62,9.79,92890.56,727.24,0.0,0.0,0.0
3303,2,3303,52,8.54,-0.68,4.27,0.4,-0.10,-0.8,5.62,9.77,92891.67,727.53,0.0,0.0,0.0
3352,2,3352,49,9.35,-0.32,3.2,0.4,-0.9,-0.9,5.68,9.78,92882.97,727.5,0.0,0.0,0.0
3398,2,3398,46,9.32,-0.29,3.29,0.5,-0.10,-0.10,5.62,9.78,92887.30,727.54,0.0,0.0,0.0
3444,2,3444,46,9.16,-0.15,3.3,0.4,-0.10,-0.10,5.62,9.79,92891.67,727.44,0.0,0.0,0.0
3490,2,3490,46,10.30,-0.55,3.72,0.4,-0.8,-0.8,5.68,9.79,92887.30,727.5,0.0,0.0,0.0
3536,2,3536,46,9.35,-0.27,3.66,0.4,-0.8,-0.9,5.68,9.78,92894.92,726.95,0.0,0.0,0.0
3582,2,3582,46,9.36,-0.10,3.4,0.4,-0.9,-0.10,5.68,9.79,92898.18,727.34,0.0,0.0,0.0
3631,2,3631,49,9.38,-0.34,3.10,0.4,-0.9,-0.10,5.62,9.79,92891.63,726.56,0.0,0.0,0.0
3677,2,3677,46,8.96,-0.18,3.43,0.5,-0.8,-0.7,5.62,9.79,92896.0,726.96,0.0,0.0,0.0
3723,2,3723,46,9.50,-1.45,1.92,0.2,-0.7,-0.11,5.68,9.79,92887.30,726.67,0.0,0.0,0.0
3769,2,3769,46,9.25,-0.28,3.11,0.4,-0.8,-0.10,5.62,9.79,92899.25,727.24,0.0,0.0,0.0
3820,2,3820,51,9.50,-0.27,2.79,0.5,-0.15,-0.11,5.68,9.79,92892.74,727.15,0.0,0.0,0.0
3866,2,3866,46,9.11,-0.27,3.16,0.4,-0.9,-0.9,5.62,9.79,92887.26,727.5,0.0,0.0,0.0
3912,2,3912,46,9.38,-0.31,3.15,0.4,-0.10,-0.9,5.62,9.78,92894.96,726.66,0.0,0.0,0.0
3955,2,3955,43,9.39,-0.33,3.20,0.4,-0.9,-0.9,5.62,9.79,92890.56,726.86,0.0,0.0,0.0
4001,2,4001,46,9.60,-0.72,3.27,0.4,-0.8,-0.12,5.62,9.79,92889.48,727.5,0.0,0.0,0.0
4047,2,4047,46,9.77,-0.31,3.34,0.3,-0.10,-0.9,5.68,9.79,92891.63,727.73,0.0,0.0,0.0
4094,2,4094,47,9.78,-0.38,3.46,0.6,-0.7,-0.13,5.62,9.79,92893.82,726.96,0.0,0.0,0.0
4140,2,4140,46,9.53,-0.38,3.4,0.3,-0.8,-0.8,5.56,9.79,92899.25,726.86,0.0,0.0,0.0
4186,2,4186,46,9.33,-0.31,3.61,0.3,-0.8,-0.9,5.62,9.79,92891.67,726.95,0.0,0.0,0.0
4229,2,4229,43,9.32,-0.31,2.79,0.5,-0.12,-0.10,5.62,9.79,92894.92,726.37,0.0,0.0,0.0
4275,2,4275,46,9.53,-0.40,3.46,0.6,-0.7,-0.12,5.68,9.79,92888.33,726.86,0.0,0.0,0.0
4326,2,4326,51,9.14,-0.32,3.20,0.6,-0.8,-0.12,5.56,9.78,92896.0,726.86,0.0,0.0,0.0
4372,2,4372,46,9.17,-0.64,3.14,0.6,-0.10,-0.10,5.62,9.79,92892.74,726.47,0.0,0.0,0.0
4418,2,4418,46,9.37,-0.1,2.87,0.3,-0.9,-0.5,5.62,9.78,92885.8,726.86,0.0,0.0,0.0
4464,2,4464,46,10.3,-0.48,2.92,0.0,-0.7,-0.3,5.56,9.79,92887.26,726.76,0.0,0.0,0.0
4507,2,4507,43,9.37,-0.18,3.25,0.5,-0.9,-0.13,5.56,9.79,92889.45,727.5,0.0,0.0,0.0
4553,2,4553,46,9.44,-0.49,3.24,0.4,-0.8,-0.10,5.62,9.79,92885.4,727.15,0.0,0.0,0.0
4599,2,4599,46,9.67,-0.39,3.2,0.2,-0.8,-0.7,5.62,9.79,92893.82,727.35,0.0,0.0,0.0
4645,2,4645,46,9.14,-0.32,3.89,0.4,-0.10,-0.10,5.68,9.79,92887.22,727.5,0.0,0.0,0.0
4691,2,4691,46,9.28,-0.33,3.25,0.4,-0.10,-0.9,5.68,9.80,92889.41,727.5,0.0,0.0,0.0
4737,2,4737,46,9.39,-0.31,2.96,0.5,-0.7,-0.10,5.75,9.80,92896.0,727.15,0.0,0.0,0.0
4780,2,4780,43,10.83,-0.69,2.48,0.2,-0.5,-0.6,5.62,9.79,92892.67,726.57,0.0,0.0,0.0
4831,2,4831,51,9.33,-0.40,3.34,0.5,-0.5,-0.11,5.68,9.79,92891.59,726.96,0.0,0.0,0.0
4877,2,4877,46,9.54,-0.41,2.43,0.0,0.8,-0.12,5.68,9.79,92892.70,726.67,0.0,0.0,0.0
4923,2,4923,46,9.73,-0.38,3.13,0.3,-0.14,-0.6,5.68,9.79,92895.96,727.15,0.0,0.0,0.0
4969,2,4969,46,9.8,-0.27,2.99,0.5,-0.15,-0.8,5.68,9.80,92889.41,726.67,0.0,0.0,0.0
5015,2,5015,46,9.14,-0.36,3.14,0.6,-0.10,-0.12,5.62,9.80,92891.63,726.27,0.0,0.0,0.0
5059,2,5059,44,9.7,-0.24,3.34,0.3,-0.5,-0.9,5.68,9.79,92887.22,727.45,0.0,0.0,0.0
5106,2,5106,47,9.32,-0.39,3.27,0.3,-0.10,-0.8,5.68,9.79,92889.41,726.47,0.0,0.0,0.0
5152,2,5152,46,9.44,-0.27,3.18,0.4,-0.7,-0.10,5.68,9.80,92886.11,726.96,0.0,0.0,0.0
5198,2,5198,46,9.35,-0.31,3.21,0.4,-0.8,-0.10,5.68,9.80,92890.48,727.25,0.0,0.0,0.0
5244,2,5244,46,9.16,-0.33,3.23,0.3,-0.12,-0.9,5.75,9.81,92895.92,726.86,0.0,0.0,0.0
5290,2,5290,46,9.28,-0.32,3.32,0.4,-0.8,-0.10,5.68,9.79,92894.85,727.15,0.0,0.0,0.0
5347,2,5347,57,9.40,-0.34,3.17,0.4,-0.8,-0.10,5.68,9.79,92892.74,726.57,0.0,0.0,0.0
5393,2,5393,46,9.38,-0.32,3.28,0.4,-0.9,-0.10,5.68,9.79,92895.96,726.76,0.0,0.0,0.0
5439,2,5439,46,9.39,-0.33,3.30,0.4,-0.9,-0.9,5.68,9.79,92890.52,727.54,0.0,0.0,0.0
5485,2,5485,46,9.42,-0.32,3.21,0.4,-0.9,-0.9,5.68,9.80,92887.22,727.74,0.0,0.0,0.0
5531,2,5531,46,9.30,-0.29,3.10,0.4,-0.10,-0.10,5.75,9.81,92887.22,726.76,0.0,0.0,0.0
5577,2,5577,46,9.39,-0.31,3.16,0.4,-0.9,-0.9,5.75,9.80,92895.96,726.76,0.0,0.0,0.0
5621,2,5621,44,9.27,-0.29,3.20,0.4,-0.8,-0.9,5.62,9.80,92892.67,726.96,0.0,0.0,0.0
5667,2,5667,46,9.35,-0.33,3.24,0.4,-0.9,-0.9,5.68,9.80,92894.81,727.15,0.0,0.0,0.0
5713,2,5713,46,9.42,-0.33,3.17,0.4,-0.9,-0.9,5.68,9.80,92891.56,726.76,0.0,0.0,0.0
5759,2,5759,46,9.37,-0.33,3.24,0.4,-0.9,-0.10,5.68,9.81,92891.56,726.38,0.0,0.0,0.0
5805,2,5805,46,9.37,-0.32,3.14,0.4,-0.9,-0.9,5.56,9.80,92894.81,726.96,0.0,0.0,0.0
5856,2,5856,51,9.40,-0.31,3.21,0.4,-0.9,-0.9,5.62,9.80,92893.78,727.25,0.0,0.0,0.0
5899,2,5899,43,9.39,-0.30,3.21,0.4,-0.9,-0.9,5.56,9.80,92899.21,727.45,0.0,0.0,0.0
5945,2,5945,46,9.40,-0.33,3.22,0.4,-0.9,-0.9,5.62,9.79,92885.0,726.86,0.0,0.0,0.0
5991,2,5991,46,9.40,-0.33,3.18,0.4,-0.9,-0.9,5.62,9.81,92895.92,726.77,0.0,0.0,0.0
6037,2,6037,46,9.48,-0.36,3.30,0.4,-0.9,-0.9,5.56,9.80,92894.81,727.16,0.0,0.0,0.0
6083,2,6083,46,9.38,-0.38,3.23,0.4,-0.9,-0.9,5.68,9.81,92886.7,726.96,0.0,0.0,0.0
6130,2,6130,47,9.21,-0.27,3.18,0.4,-0.8,-0.9,5.68,9.81,92896.96,727.16,0.0,0.0,0.0
6173,2,6173,43,9.57,-0.36,3.27,0.4,-0.9,-0.10,5.56,9.81,92891.52,727.16,0.0,0.0,0.0
6219,2,6219,46,9.4,-0.24,3.12,0.4,-0.9,-0.10,5.56,9.82,92890.44,726.67,0.0,0.0,0.0
6265,2,6265,46,9.22,-0.33,3.17,0.4,-0.9,-0.9,5.62,9.81,92890.41,727.35,0.0,0.0,0.0
6311,2,6311,46,8.87,-0.22,3.0,0.4,-0.9,-0.10,5.56,9.81,92898.7,726.48,0.0,0.0,0.0
6362,2,6362,51,9.29,-0.38,3.20,0.4,-0.9,-0.9,5.56,9.81,92888.26,727.45,0.0,0.0,0.0
6408,2,6408,46,9.27,-0.32,3.32,0.4,-0.8,-0.9,5.56,9.81,92890.44,725.80,0.0,0.0,0.0
6451,2,6451,43,9.21,-0.26,3.0,0.4,-0.10,-0.9,5.68,9.82,92890.41,726.97,0.0,0.0,0.0
6497,2,6497,46,9.46,-0.26,2.80,0.5,-0.8,-0.10,5.56,9.81,92892.59,726.87,0.0,0.0,0.0
6543,2,6543,46,8.94,-0.41,3.10,0.4,-0.8,-0.9,5.56,9.82,92891.52,727.55,0.0,0.0,0.0
6589,2,6589,46,9.51,-0.35,3.11,0.3,-0.9,-0.10,5.56,9.81,92893.66,726.48,0.0,0.0,0.0
6635,2,6635,46,9.35,-0.39,3.48,0.2,-0.8,-0.10,5.56,9.81,92888.22,727.35,0.0,0.0,0.0
6681,2,6681,46,9.47,-0.25,3.10,0.3,-0.8,-0.10,5.56,9.82,92883.82,726.38,0.0,0.0,0.0
6724,2,6724,43,9.25,-0.37,3.11,0.3,-0.10,-0.9,5.56,9.82,92893.66,726.68,0.0,0.0,0.0
6770,2,6770,46,9.36,-0.33,3.20,0.4,-0.11,-0.10,5.56,9.81,92887.15,726.77,0.0,0.0,0.0
6816,2,6816,46,9.38,-0.34,3.38,0.3,-0.9,-0.10,5.56,9.82,92894.78,726.87,0.0,0.0,0.0
6867,2,6867,51,9.50,-0.23,3.8,0.3,-0.9,-0.10,5.62,9.81,92884.96,726.87,0.0,0.0,0.0
6913,2,6913,46,9.25,-0.31,3.47,0.3,-0.9,-0.10,5.56,9.81,92891.48,727.36,0.0,0.0,0.0
6959,2,6959,46,9.53,-0.33,3.16,0.3,-0.7,-0.10,5.56,9.82,92890.41,727.6,0.0,0.0,0.0
7008,2,7008,49,9.32,-0.22,2.86,0.2,-0.9,-0.11,5.56,9.81,92891.52,727.6,0.0,0.0,0.0
7054,2,7054,46,9.31,-0.33,2.97,0.1,-0.9,-0.11,5.56,9.82,92886.4,726.87,0.0,0.0,0.0
7100,2,7100,46,9.49,-0.28,3.49,0.2,-0.7,-0.12,5.56,9.81,92894.78,726.87,0.0,0.0,0.0
7147,2,7147,47,10.33,-0.23,3.9,0.4,-0.10,-0.15,5.62,9.82,92894.78,727.65,0.0,0.0,0.0
7193,2,7193,46,9.93,-0.62,3.16,0.2,-0.11,-0.24,5.50,9.82,92887.15,727.46,0.0,0.0,0.0
7239,2,7239,46,9.95,-0.31,3.12,0.1,-0.10,-0.28,5.50,9.82,92891.52,726.87,0.0,0.0,0.0
7305,2,7305,66,8.45,-0.41,2.33,0.4,-0.12,-0.34,5.50,9.81,92895.92,726.96,0.0,0.0,0.0
7351,2,7351,46,8.88,0.39,3.62,0.6,-0.12,-0.34,5.50,9.80,92889.37,726.57,0.0,0.0,0.0
7412,2,7412,61,9.4,0.26,2.79,0.5,-0.10,-0.27,5.50,9.80,92894.81,726.76,0.0,0.0,0.0
7458,2,7458,46,8.87,0.25,2.73,0.0,-0.12,-0.22,5.50,9.81,92888.30,726.96,0.0,0.0,0.0
7504,2,7504,46,8.78,0.30,3.68,0.0,-0.10,-0.19,5.50,9.81,92897.0,726.96,0.0,0.0,0.0
7550,2,7550,46,8.93,0.44,2.90,0.2,-0.10,-0.16,5.50,9.81,92883.89,727.16,0.0,0.0,0.0
7598,2,7598,48,9.38,0.26,3.42,0.2,-0.10,-0.14,5.56,9.82,92888.26,726.77,0.0,0.0,0.0
7644,2,7644,46,9.57,0.21,3.49,0.4,-0.8,-0.10,5.43,9.82,92890.44,727.7,0.0,0.0,0.0
7690,2,7690,46,9.13,0.37,2.77,0.6,-0.10,-0.10,5.50,9.81,92899.14,727.16,0.0,0.0,0.0
7736,2,7736,46,8.78,0.22,4.49,0.5,-0.7,-0.7,5.50,9.82,92886.7,727.16,0.0,0.0,0.0
7782,2,7782,46,8.10,0.92,3.31,0.5,-0.4,-0.7,5.50,9.81,92887.15,726.77,0.0,0.0,0.0
7828,2,7828,46,10.50,0.25,3.27,0.3,-0.14,-0.10,5.50,9.82,92895.85,726.77,0.0,0.0,0.0
7877,2,7877,49,8.96,0.30,3.84,0.7,-0.8,-0.10,5.56,9.82,92892.59,727.6,0.0,0.0,0.0
7929,2,7929,52,9.12,-0.7,2.5,0.7,-0.8,-0.6,5.50,9.81,92890.44,727.6,0.0,0.0,0.0
7975,2,7975,46,9.59,0.38,2.99,0.2,-0.9,-0.7,5.50,9.81,92886.7,727.6,0.0,0.0,0.0
8021,2,8021,46,9.71,0.34,3.2,0.0,-0.9,-0.7,5.62,9.81,92894.78,727.16,0.0,0.0,0.0
8067,2,8067,46,9.40,0.36,3.75,0.4,-0.9,-0.9,5.56,9.82,92900.21,727.55,0.0,0.0,0.0
8113,2,8113,46,9.19,0.29,3.8,0.6,-0.10,-0.9,5.56,9.81,92892.59,726.68,0.0,0.0,0.0
8160,2,8160,47,9.83,0.40,3.32,0.5,-0.6,-0.10,5.56,9.81,92893.70,727.16,0.0,0.0,0.0
8203,2,8203,43,9.43,0.23,2.66,0.4,-0.10,-0.12,5.56,9.82,92893.70,727.94,0.0,0.0,0.0
8249,2,8249,46,9.0,0.39,3.10,0.1,-0.8,-0.12,5.50,9.82,92889.33,726.87,0.0,0.0,0.0
8295,2,8295,46,8.68,0.26,2.56,0.0,-0.8,-0.9,5.56,9.82,92895.89,727.7,0.0,0.0,0.0
8341,2,8341,46,10.9,0.41,3.0,-0.4,-0.7,-0.10,5.56,9.82,92891.48,727.36,0.0,0.0,0.0
8387,2,8387,46,9.21,0.56,3.56,-0.3,-0.9,-0.12,5.62,9.82,92890.41,727.45,0.0,0.0,0.0
8438,2,8438,51,9.16,0.33,3.50,-0.1,-0.10,-0.11,5.56,9.82,92897.0,726.96,0.0,0.0,0.0
8481,2,8481,43,10.10,0.48,3.44,0.0,-0.10,-0.7,5.56,9.82,92890.44,727.25,0.0,0.0,0.0
8527,2,8527,46,9.48,0.23,3.51,0.0,-0.9,-0.9,5.56,9.82,92890.41,726.87,0.0,0.0,0.0
8573,2,8573,46,9.57,0.21,3.34,0.3,-0.6,-0.10,5.56,9.81,92895.85,727.16,0.0,0.0,0.0
8619,2,8619,46,9.60,0.27,2.85,0.4,-0.7,-0.11,5.56,9.82,92899.10,726.87,0.0,0.0,0.0
8665,2,8665,46,9.42,0.48,3.11,0.3,-0.6,-0.12,5.56,9.82,92893.66,726.97,0.0,0.0,0.0
8711,2,8711,46,8.54,0.20,4.17,0.8,-0.10,-0.13,5.62,9.82,92899.14,727.55,0.0,0.0,0.0
8754,2,8754,43,10.6,-0.10,3.2,0.11,-0.10,-0.10,5.56,9.82,92893.66,727.7,0.0,0.0,0.0
8800,2,8800,46,9.32,0.67,2.79,0.9,-0.10,-0.8,5.56,9.81,92896.96,727.26,0.0,0.0,0.0
8846,2,8846,46,9.9,0.41,2.83,0.6,-0.10,-0.8,5.56,9.82,92892.55,726.87,0.0,0.0,0.0
8892,2,8892,46,9.15,0.28,3.11,0.5,-0.9,-0.6,5.56,9.83,92899.10,727.26,0.0,0.0,0.0
8943,2,8943,51,9.98,0.30,3.42,0.5,-0.9,-0.6,5.56,9.83,92894.74,727.65,0.0,0.0,0.0
8989,2,8989,46,9.30,0.40,3.41,0.6,-0.8,-0.10,5.56,9.82,92893.66,727.55,0.0,0.0,0.0
9032,2,9032,43,9.41,0.33,3.14,0.7,-0.8,-0.10,5.56,9.82,92888.22,727.46,0.0,0.0,0.0
9078,2,9078,46,9.26,0.49,2.89,0.8,-0.9,-0.10,5.56,9.83,92890.37,727.7,0.0,0.0,0.0
9124,2,9124,46,9.49,0.50,2.70,0.5,-0.9,-0.10,5.56,9.83,92884.92,727.46,0.0,0.0,0.0
9171,2,9171,47,9.39,0.49,2.57,0.3,-0.10,-0.10,5.56,9.83,92894.74,727.16,0.0,0.0,0.0
9217,2,9217,46,9.56,0.36,3.23,0.0,-0.10,-0.12,5.50,9.83,92890.37,726.48,0.0,0.0,0.0
9263,2,9263,46,9.41,0.20,3.56,0.0,-0.9,-0.12,5.50,9.82,92886.4,727.46,0.0,0.0,0.0
9306,2,9306,43,9.68,0.51,2.12,0.0,-0.11,-0.10,5.50,9.82,92892.55,727.26,0.0,0.0,0.0
9352,2,9352,46,9.60,0.40,3.12,-0.3,-0.8,-0.14,5.50,9.83,92893.63,726.87,0.0,0.0,0.0
9398,2,9398,46,10.41,-0.19,4.14,-0.3,-0.8,-0.11,5.56,9.83,92888.18,727.55,0.0,0.0,0.0
9449,2,9449,51,9.34,0.57,3.99,0.0,-0.8,-0.12,5.56,9.82,92890.41,727.46,0.0,0.0,0.0
9495,2,9495,46,10.23,0.45,1.78,0.9,-0.8,-0.15,5.50,9.83,92896.92,727.16,0.0,0.0,0.0
9541,2,9541,46,9.23,0.53,3.23,0.6,-0.9,-0.12,5.56,9.82,92887.15,726.58,0.0,0.0,0.0
9586,2,9586,45,8.80,0.34,3.84,0.7,-0.9,-0.9,5.56,9.82,92890.41,726.97,0.0,0.0,0.0
9632,2,9632,46,9.37,0.27,2.96,0.12,-0.9,-0.5,5.56,9.82,92893.66,727.7,0.0,0.0,0.0
9678,2,9678,46,9.70,0.41,3.16,0.9,-0.9,-0.7,5.62,9.82,92886.0,726.68,0.0,0.0,0.0
9724,2,9724,46,9.74,0.30,2.53,0.8,-0.9,-0.8,5.56,9.83,92892.55,727.46,0.0,0.0,0.0
9770,2,9770,46,9.91,0.88,2.10,0.5,-0.10,-0.10,5.56,9.83,92890.37,727.7,0.0,0.0,0.0
9816,2,9816,46,9.67,0.59,3.9,0.3,-0.8,-0.11,5.56,9.84,92888.18,726.78,0.0,0.0,0.0
9860,2,9860,44,8.96,0.29,3.31,0.3,-0.9,-0.11,5.56,9.84,92890.37,727.55,0.0,0.0,0.0
9906,2,9906,46,9.47,0.45,3.24,0.4,-0.10,-0.10,5.56,9.84,92893.63,727.17,0.0,0.0,0.0
9967,2,9967,61,9.10,0.51,3.17,0.8,-0.9,-0.8,5.62,9.83,92891.48,726.68,0.0,0.0,0.0
10013,2,10013,46,9.99,0.30,2.16,0.6,-0.9,-0.8,5.56,9.83,92888.22,726.97,0.0,0.0,0.0
10059,2,10059,46,9.77,0.61,3.33,0.5,-0.9,-0.14,5.50,9.83,92892.55,726.87,0.0,0.0,0.0
10105,2,10105,46,8.93,0.40,3.48,0.8,-0.12,-0.11,5.56,9.83,92892.55,727.36,0.0,0.0,0.0
10148,2,10148,43,9.47,0.60,2.16,0.7,-0.10,-0.10,5.62,9.83,92889.26,726.87,0.0,0.0,0.0
10195,2,10195,47,10.13,0.50,2.21,0.1,-0.10,-0.11,5.56,9.84,92893.63,726.97,0.0,0.0,0.0
10241,2,10241,46,9.24,0.46,3.45,0.0,-0.8,-0.12,5.56,9.84,92893.59,727.17,0.0,0.0,0.0
10287,2,10287,46,9.8,0.56,3.29,0.2,-0.9,-0.10,5.56,9.83,92884.89,726.88,0.0,0.0,0.0
10333,2,10333,46,10.14,0.49,2.92,0.3,-0.9,-0.11,5.50,9.85,92889.26,726.78,0.0,0.0,0.0
10379,2,10379,46,9.35,0.66,2.50,0.0,-0.11,-0.10,5.50,9.84,92892.48,726.49,0.0,0.0,0.0
10422,2,10422,43,9.4,0.43,3.12,0.0,-0.9,-0.8,5.62,9.85,92891.36,727.46,0.0,0.0,0.0
10473,2,10473,51,9.52,0.37,3.91,0.7,-0.9,-0.7,5.50,9.84,92881.64,727.27,0.0,0.0,0.0
10519,2,10519,46,10.55,0.60,2.12,0.5,-0.12,-0.14,5.56,9.84,92888.14,727.46,0.0,0.0,0.0
10565,2,10565,46,8.97,0.46,3.6,0.4,-0.8,-0.9,5.56,9.84,92891.40,726.68,0.0,0.0,0.0
10611,2,10611,46,9.10,0.25,3.22,0.4,-0.8,-0.8,5.56,9.84,92899.3,726.78,0.0,0.0,0.0
10657,2,10657,46,9.90,1.1,3.31,0.2,-0.6,-0.10,5.56,9.85,92889.22,726.68,0.0,0.0,0.0
10700,2,10700,43,9.45,0.61,2.68,0.1,-0.12,-0.10,5.56,9.85,92892.48,726.59,0.0,0.0,0.0
10746,2,10746,46,8.98,0.88,3.21,0.5,-0.9,-0.7,5.56,9.85,92894.66,726.88,0.0,0.0,0.0
10792,2,10792,46,9.69,0.37,2.92,0.3,-0.8,-0.5,5.56,9.84,92895.77,727.7,0.0,0.0,0.0
10838,2,10838,46,9.24,0.48,3.45,0.5,-0.9,-0.10,5.56,9.85,92890.29,726.59,0.0,0.0,0.0
10884,2,10884,46,8.61,0.67,2.58,0.8,-0.9,-0.10,5.56,9.85,92896.85,727.17,0.0,0.0,0.0
10930,2,10930,46,9.28,0.28,2.74,0.7,-0.10,-0.6,5.50,9.85,92885.92,726.30,0.0,0.0,0.0
10978,2,10978,48,9.6,0.68,2.64,0.2,-0.9,-0.2,5.56,9.85,92887.0,726.88,0.0,0.0,0.0
11024,2,11024,46,10.6,0.47,3.43,0.0,-0.9,-0.1,5.50,9.85,92888.11,727.8,0.0,0.0,0.0
11070,2,11070,46,10.14,0.83,2.82,0.3,-0.10,-0.9,5.62,9.85,92889.22,727.27,0.0,0.0,0.0
11116,2,11116,46,9.38,0.53,3.47,0.5,-0.9,-0.10,5.56,9.85,92890.29,727.37,0.0,0.0,0.0
11162,2,11162,46,8.80,0.36,3.50,0.6,-0.7,-0.8,5.62,9.85,92890.29,727.27,0.0,0.0,0.0
11209,2,11209,47,9.72,0.37,2.53,0.5,-0.10,-0.7,5.56,9.85,92888.11,726.59,0.0,0.0,0.0
11252,2,11252,43,9.63,0.31,2.58,0.2,-0.9,-0.6,5.56,9.85,92888.11,726.68,0.0,0.0,0.0
11298,2,11298,46,9.46,0.49,3.78,0.7,-0.9,-0.6,5.62,9.85,92895.74,727.8,0.0,0.0,0.0
11344,2,11344,46,9.58,0.24,3.30,0.7,-0.8,-0.7,5.68,9.85,92893.55,726.39,0.0,0.0,0.0
11390,2,11390,46,9.69,0.41,2.92,0.7,-0.9,-0.8,5.62,9.85,92889.18,727.8,0.0,0.0,0.0
11436,2,11436,46,7.83,0.44,2.63,0.4,-0.10,-0.14,5.56,9.85,92892.48,727.8,0.0,0.0,0.0
11487,2,11487,51,9.68,0.60,2.65,0.1,-0.9,-0.16,5.62,9.84,92891.40,726.49,0.0,0.0,0.0
11530,2,11530,43,9.9,0.45,3.51,0.2,-0.7,-0.16,5.56,9.85,92891.40,726.88,0.0,0.0,0.0
11576,2,11576,46,8.93,0.55,2.90,0.1,-0.10,-0.14,5.56,9.85,92892.48,727.17,0.0,0.0,0.0
11622,2,11622,46,9.2,0.43,2.96,-0.1,-0.9,-0.9,5.62,9.85,92892.48,726.78,0.0,0.0,0.0
11668,2,11668,46,9.59,0.54,3.63,-0.1,-0.11,-0.8,5.62,9.85,92888.11,727.8,0.0,0.0,0.0
11714,2,11714,46,9.48,0.39,3.42,0.3,-0.9,-0.7,5.62,9.85,92893.55,727.17,0.0,0.0,0.0
11760,2,11760,46,9.37,0.32,3.4,0.3,-0.9,-0.7,5.62,9.85,92892.48,727.8,0.0,0.0,0.0
11804,2,11804,44,9.68,0.50,2.81,0.3,-0.8,-0.9,5.56,9.85,92890.29,727.8,0.0,0.0,0.0
11850,2,11850,46,8.99,0.50,2.94,0.1,-0.8,-0.8,5.62,9.85,92885.92,727.76,0.0,0.0,0.0
11896,2,11896,46,9.22,0.36,3.17,0.0,-0.7,-0.6,5.68,9.85,92892.44,727.27,0.0,0.0,0.0
11942,2,11942,46,9.63,0.44,3.70,0.3,-0.7,-0.9,5.56,9.85,92889.18,727.17,0.0,0.0,0.0
12004,2,12004,62,8.51,0.39,3.46,0.4,-0.7,-0.8,5.62,9.84,92890.33,726.87,0.0,0.0,0.0
12050,2,12050,46,9.49,0.26,3.72,0.4,-0.8,-0.4,5.56,9.84,92884.89,727.17,0.0,0.0,0.0
12092,2,12092,42,9.72,0.33,2.97,0.5,-0.9,-0.3,5.62,9.85,92887.3,726.78,0.0,0.0,0.0
12138,2,12138,46,9.40,0.25,3.41,0.3,-0.9,-0.7,5.56,9.85,92889.22,726.98,0.0,0.0,0.0
12184,2,12184,46,8.94,0.24,3.0,0.4,-0.9,-0.5,5.68,9.85,92890.29,726.98,0.0,0.0,0.0
12231,2,12231,47,9.50,0.15,3.30,0.3,-0.8,-0.3,5.62,9.85,92893.59,727.26,0.0,0.0,0.0
12277,2,12277,46,9.32,0.46,3.7,0.2,-0.7,-0.4,5.62,9.85,92892.48,726.78,0.0,0.0,0.0
12323,2,12323,46,9.17,0.45,2.99,0.4,-0.8,-0.3,5.62,9.84,92894.70,727.8,0.0,0.0,0.0
12372,2,12372,49,8.59,0.53,3.38,0.3,-0.6,0.1,5.62,9.84,92891.40,726.88,0.0,0.0,0.0
12418,2,12418,46,14.83,-1.60,2.44,0.0,-0.8,-0.1,5.68,9.85,92888.11,726.59,0.0,0.0,0.0
12464,2,12464,46,9.77,-0.35,4.22,-0.2,-0.10,0.0,5.62,9.85,92888.11,726.78,0.0,0.0,0.0
12516,2,12516,52,9.75,0.66,3.42,0.1,-0.10,0.0,5.62,9.85,92889.22,726.68,0.0,0.0,0.0
12562,2,12562,46,9.26,0.5,3.51,0.3,-0.9,-0.2,5.62,9.84,92896.85,727.17,0.0,0.0,0.0
12608,2,12608,46,9.12,0.3,3.1,0.4,-0.8,0.0,5.62,9.85,92888.11,727.27,0.0,0.0,0.0
12657,2,12657,49,9.43,-0.9,3.21,0.3,-0.7,0.2,5.50,9.85,92881.56,726.98,0.0,0.0,0.0
12703,2,12703,46,10.37,-0.41,3.7,0.5,-0.13,-0.6,5.56,9.85,92890.29,727.17,0.0,0.0,0.0
12749,2,12749,46,9.73,0.8,2.89,0.4,-0.9,-0.9,5.62,9.85,92889.18,727.27,0.0,0.0,0.0
12795,2,12795,46,9.12,-0.38,2.61,0.3,-0.9,-0.11,5.62,9.85,92894.62,726.78,0.0,0.0,0.0
12841,2,12841,46,9.34,-0.11,3.51,0.3,-0.9,-0.9,5.68,9.85,92891.36,726.79,0.0,0.0,0.0
12887,2,12887,46,9.26,0.5,2.41,0.0,-0.11,-0.8,5.62,9.86,92892.44,726.98,0.0,0.0,0.0
12935,2,12935,48,8.59,-0.16,3.7,0.0,-0.8,-0.10,5.68,9.86,92891.36,727.47,0.0,0.0,0.0
12981,2,12981,46,9.19,-0.2,3.36,0.0,-0.7,-0.4,5.62,9.86,92889.14,726.78,0.0,0.0,0.0
13032,2,13032,51,9.56,-0.19,3.37,0.4,-0.8,-0.6,5.62,9.86,92889.18,726.69,0.0,0.0,0.0
13078,2,13078,46,9.99,-0.46,3.75,0.4,-0.7,-0.4,5.62,9.85,92895.70,727.17,0.0,0.0,0.0
13124,2,13124,46,9.43,-0.32,3.13,0.0,-0.5,-0.1,5.62,9.87,92888.7,727.17,0.0,0.0,0.0
13170,2,13170,46,9.37,-0.33,3.74,0.3,-0.9,0.0,5.62,9.86,92888.7,726.88,0.0,0.0,0.0
13219,2,13219,49,12.19,-0.53,2.77,0.4,-0.9,-0.4,5.68,9.86,92897.88,727.8,0.0,0.0,0.0
13266,2,13266,47,9.65,-0.36,2.11,-0.2,-0.7,-0.8,5.62,9.85,92893.51,726.79,0.0,0.0,0.0
13312,2,13312,46,8.77,-0.34,3.37,-0.2,-0.8,-0.10,5.62,9.85,92894.62,726.88,0.0,0.0,0.0
13358,2,13358,46,9.31,-0.71,4.65,0.0,-0.8,-0.10,5.56,9.86,92890.25,726.98,0.0,0.0,0.0
13404,2,13404,46,9.64,-0.35,3.20,0.4,-0.7,-0.8,5.56,9.86,92892.44,727.17,0.0,0.0,0.0
13450,2,13450,46,9.24,-0.38,3.17,0.4,-0.9,-0.9,5.62,9.86,92888.7,726.30,0.0,0.0,0.0
13493,2,13493,43,9.43,-0.32,3.5,0.5,-0.9,-0.9,5.68,9.87,92893.47,726.98,0.0,0.0,0.0
13544,2,13544,51,9.33,-0.30,3.25,0.4,-0.8,-0.9,5.68,9.87,92896.77,727.37,0.0,0.0,0.0
13590,2,13590,46,9.35,-0.36,3.18,0.4,-0.9,-0.9,5.68,9.86,92900.3,727.67,0.0,0.0,0.0
13636,2,13636,46,9.37,-0.31,3.11,0.4,-0.9,-0.9,5.68,9.87,92892.40,726.89,0.0,0.0,0.0
13682,2,13682,46,9.35,-0.31,3.17,0.4,-0.9,-0.9,5.75,9.88,92894.55,726.30,0.0,0.0,0.0
13728,2,13728,46,9.68,-0.35,3.32,0.4,-0.8,-0.9,5.75,9.88,92893.43,726.79,0.0,0.0,0.0
13771,2,13771,43,9.63,-0.36,3.23,0.4,-0.9,-0.9,5.81,9.88,92886.89,726.79,0.0,0.0,0.0
13817,2,13817,46,9.97,-0.26,2.13,0.4,-0.11,-0.9,5.68,9.89,92893.43,726.40,0.0,0.0,0.0
13863,2,13863,46,9.38,-0.33,3.9,0.4,-0.10,-0.9,5.75,9.88,92893.43,727.9,0.0,0.0,0.0
13909,2,13909,46,9.18,-0.30,3.7,0.4,-0.9,-0.9,5.68,9.88,92892.32,727.9,0.0,0.0,0.0
13955,2,13955,46,9.22,-0.33,3.9,0.4,-0.9,-0.9,5.68,9.88,92885.78,726.79,0.0,0.0,0.0
14001,2,14001,46,9.46,-0.31,3.18,0.4,-0.9,-0.9,5.68,9.89,92888.0,726.60,0.0,0.0,0.0
14061,2,14061,60,9.38,-0.33,3.18,0.4,-0.9,-0.9,5.68,9.87,92895.66,727.38,0.0,0.0,0.0
14107,2,14107,46,9.36,-0.30,3.15,0.4,-0.9,-0.9,5.68,9.88,92889.10,727.67,0.0,0.0,0.0
14153,2,14153,46,9.33,-0.30,3.20,0.4,-0.9,-0.9,5.75,9.86,92893.43,726.60,0.0,0.0,0.0
14199,2,14199,46,9.34,-0.34,3.7,0.4,-0.9,-0.9,5.68,9.88,92897.81,726.89,0.0,0.0,0.0
14245,2,14245,46,9.43,-0.37,3.14,0.4,-0.8,-0.9,5.68,9.88,92894.51,727.9,0.0,0.0,0.0
14292,2,14292,47,9.42,-0.35,3.16,0.4,-0.9,-0.9,5.75,9.88,92895.62,726.89,0.0,0.0,0.0
14335,2,14335,43,9.42,-0.33,3.17,0.4,-0.9,-0.9,5.68,9.88,92893.43,727.18,0.0,0.0,0.0
14381,2,14381,46,9.39,-0.34,3.14,0.4,-0.9,-0.9,5.68,9.88,92896.73,726.79,0.0,0.0,0.0
14427,2,14427,46,9.38,-0.26,3.22,0.4,-0.9,-0.9,5.68,9.87,92890.18,727.9,0.0,0.0,0.0
14473,2,14473,46,9.36,-0.30,3.21,0.4,-0.9,-0.9,5.62,9.87,92892.36,726.69,0.0,0.0,0.0
14519,2,14519,46,9.41,-0.32,3.12,0.4,-0.9,-0.9,5.62,9.87,92884.74,727.37,0.0,0.0,0.0
14583,2,14583,64,9.39,-0.31,3.11,0.4,-0.9,-0.9,5.62,9.85,92892.44,726.49,0.0,0.0,0.0
14627,2,14627,44,9.40,-0.33,3.12,0.4,-0.9,-0.9,5.62,9.87,92893.51,726.98,0.0,0.0,0.0
14673,2,14673,46,9.37,-0.32,3.16,0.4,-0.8,-0.9,5.62,9.86,92897.88,726.50,0.0,0.0,0.0
14719,2,14719,46,9.47,-0.37,2.88,0.4,-0.10,-0.10,5.68,9.87,92890.21,727.8,0.0,0.0,0.0
14765,2,14765,46,9.64,-0.36,3.67,0.4,-0.7,-0.9,5.68,9.87,92884.78,727.47,0.0,0.0,0.0
14811,2,14811,46,9.67,-0.34,3.29,0.4,-0.9,-0.9,5.68,9.87,92885.85,726.69,0.0,0.0,0.0
14857,2,14857,46,9.62,-0.34,3.32,0.4,-0.9,-0.9,5.62,9.87,92896.73,727.28,0.0,0.0,0.0
14900,2,14900,43,9.53,-0.39,3.20,0.4,-0.9,-0.9,5.62,9.88,92885.81,727.57,0.0,0.0,0.0
14946,2,14946,46,9.56,-0.33,3.24,0.4,-0.9,-0.9,5.62,9.88,92892.36,726.79,0.0,0.0,0.0
14992,2,14992,46,9.47,-0.32,3.26,0.4,-0.9,-0.9,5.68,9.88,92888.0,726.69,0.0,0.0,0.0
15038,2,15038,46,9.30,-0.29,3.28,0.4,-0.10,-0.9,5.62,9.88,92884.74,727.37,0.0,0.0,0.0
15089,2,15089,51,9.16,-1.11,3.31,0.6,-0.14,-0.9,5.62,9.87,92890.21,726.50,0.0,0.0,0.0
15135,2,15135,46,8.96,-1.86,4.70,0.7,-0.34,-0.4,5.62,9.86,92885.85,727.8,0.0,0.0,0.0
15178,2,15178,43,9.6,-1.27,3.41,0.7,-0.60,0.1,5.62,9.86,92889.14,726.79,0.0,0.0,0.0
15224,2,15224,46,8.76,-0.79,4.5,0.12,-0.20,0.3,5.62,9.88,92891.33,726.88,0.0,0.0,0.0
15270,2,15270,46,10.43,0.2,2.17,0.24,-0.16,-0.1,5.68,9.87,92893.47,727.37,0.0,0.0,0.0
15317,2,15317,47,8.58,0.0,2.73,0.28,-0.3,0.0,5.62,9.87,92891.25,726.70,0.0,0.0,0.0
15363,2,15363,46,8.55,-0.32,1.33,0.38,0.1,0.6,5.68,9.88,92893.47,727.28,0.0,0.0,0.0
15409,2,15409,46,9.58,0.9,1.88,0.38,0.0,0.0,5.68,9.87,92896.73,726.89,0.0,0.0,0.0
15452,2,15452,43,9.63,1.3,2.2,0.35,-0.22,-0.8,5.68,9.87,92898.92,727.37,0.0,0.0,0.0
15498,2,15498,46,9.23,-0.23,2.41,0.29,-0.21,-0.18,5.68,9.88,92890.21,726.99,0.0,0.0,0.0
15544,2,15544,46,9.51,-1.23,3.6,0.21,1.8,-0.22,5.68,9.87,92894.55,726.69,0.0,0.0,0.0
15595,2,15595,51,7.49,-0.10,2.82,0.6,-0.8,-0.9,5.68,9.87,92893.51,726.99,0.0,0.0,0.0
15641,2,15641,46,7.88,-0.36,2.42,0.4,-0.16,-0.10,5.68,9.88,92889.10,727.37,0.0,0.0,0.0
15687,2,15687,46,8.92,-0.34,2.84,0.4,-0.7,-0.9,5.68,9.87,92890.21,726.99,0.0,0.0,0.0
15730,2,15730,43,8.75,-0.32,3.27,0.4,-0.6,-0.10,5.68,9.86,92894.55,726.70,0.0,0.0,0.0
15776,2,15776,46,9.12,-0.34,2.65,0.4,-0.11,-0.10,5.68,9.87,92892.36,726.99,0.0,0.0,0.0
15822,2,15822,46,9.9,-0.30,3.17,0.4,-0.8,-0.9,5.68,9.88,92890.18,727.18,0.0,0.0,0.0
15868,2,15868,46,9.39,-0.27,3.4,0.4,-0.9,-0.9,5.62,9.87,92891.29,727.38,0.0,0.0,0.0
15914,2,15914,46,9.30,-0.38,3.6,0.4,-0.10,-0.9,5.68,9.88,92893.43,726.99,0.0,0.0,0.0
15960,2,15960,46,9.45,-0.29,3.20,0.4,-0.8,-0.9,5.62,9.89,92893.47,726.98,0.0,0.0,0.0
16003,2,16003,43,9.33,-0.36,3.15,0.4,-0.9,-0.9,5.68,9.87,92888.3,727.18,0.0,0.0,0.0
16049,2,16049,46,9.45,-0.35,3.15,0.4,-0.9,-0.9,5.68,9.87,92901.7,727.66,0.0,0.0,0.0
16100,2,16100,51,9.41,-0.41,3.10,0.4,-0.10,-0.9,5.68,9.87,92891.29,726.89,0.0,0.0,0.0
16146,2,16146,46,9.51,-0.38,3.16,0.4,-0.9,-0.9,5.68,9.87,92885.81,726.89,0.0,0.0,0.0
16192,2,16192,46,9.53,-0.38,3.17,0.4,-0.9,-0.9,5.68,9.88,92889.10,727.9,0.0,0.0,0.0
16238,2,16238,46,9.50,-0.32,3.17,0.4,-0.8,-0.9,5.75,9.87,92893.51,727.18,0.0,0.0,0.0
16285,2,16285,47,9.53,-0.31,3.12,0.4,-0.9,-0.9,5.75,9.87,92889.10,727.18,0.0,0.0,0.0
16332,2,16332,47,9.43,-0.37,3.10,0.4,-0.8,-0.9,5.75,9.87,92892.36,727.28,0.0,0.0,0.0
16378,2,16378,46,9.38,-0.40,3.6,0.4,-0.9,-0.9,5.68,9.88,92892.36,726.79,0.0,0.0,0.0
16424,2,16424,46,9.49,-0.37,3.10,0.4,-0.9,-0.9,5.62,9.88,92893.43,726.99,0.0,0.0,0.0
16470,2,16470,46,9.41,-0.34,3.12,0.4,-0.9,-0.9,5.62,9.88,92895.62,726.60,0.0,0.0,0.0
16516,2,16516,46,9.43,-0.36,3.14,0.4,-0.9,-0.9,5.68,9.88,92892.36,727.9,0.0,0.0,0.0
16559,2,16559,43,9.84,-0.41,3.27,0.4,-0.10,-0.8,5.62,9.88,92895.66,726.79,0.0,0.0,0.0
16619,2,16619,60,8.55,-0.31,3.24,0.4,-0.8,-0.10,5.68,9.86,92896.77,727.37,0.0,0.0,0.0
16665,2,16665,46,9.52,-0.31,2.95,0.4,-0.9,-0.10,5.68,9.87,92892.40,726.60,0.0,0.0,0.0
16711,2,16711,46,9.30,-0.36,2.86,0.4,-0.11,-0.9,5.68,9.88,92891.25,726.70,0.0,0.0,0.0
16757,2,16757,46,9.49,-0.42,3.13,0.4,-0.10,-0.10,5.68,9.87,92895.58,726.99,0.0,0.0,0.0
16803,2,16803,46,9.48,-0.36,3.16,0.4,-0.9,-0.9,5.68,9.88,92895.62,727.28,0.0,0.0,0.0
16846,2,16846,43,9.29,-0.33,3.14,0.4,-0.10,-0.10,5.68,9.88,92894.51,727.9,0.0,0.0,0.0
16892,2,16892,46,9.12,-0.30,3.22,0.4,-0.10,-0.10,5.68,9.89,92889.7,727.28,0.0,0.0,0.0
16938,2,16938,46,9.13,-0.36,3.63,0.3,-0.10,-0.9,5.68,9.88,92895.62,726.99,0.0,0.0,0.0
16984,2,16984,46,9.67,-0.54,4.0,0.4,-0.13,-0.8,5.62,9.88,92897.77,726.99,0.0,0.0,0.0
17030,2,17030,46,9.33,-0.62,3.7,0.7,-0.8,-0.9,5.68,9.88,92889.3,727.67,0.0,0.0,0.0
17076,2,17076,46,9.39,-0.63,3.21,0.6,-0.10,-0.8,5.68,9.88,92891.25,726.50,0.0,0.0,0.0
17124,2,17124,48,9.79,-0.14,2.67,0.6,-0.11,-0.9,5.62,9.87,92893.43,727.57,0.0,0.0,0.0
17170,2,17170,46,8.72,-0.83,3.48,0.5,-0.8,-0.8,5.68,9.88,92892.36,726.89,0.0,0.0,0.0
17216,2,17216,46,9.98,-0.30,2.93,0.8,-0.10,-0.5,5.68,9.88,92892.32,726.89,0.0,0.0,0.0
17262,2,17262,46,9.79,-1.4,3.27,0.7,-0.8,-0.2,5.75,9.88,92892.36,726.99,0.0,0.0,0.0
17308,2,17308,46,13.92,-0.12,4.46,0.12,-0.7,-0.9,5.68,9.88,92895.58,726.89,0.0,0.0,0.0
17355,2,17355,47,8.83,-0.86,3.81,0.4,-0.11,-0.8,5.68,9.88,92896.69,726.99,0.0,0.0,0.0
17398,2,17398,43,9.1,-0.55,3.61,0.5,-0.5,-0.10,5.75,9.89,92897.77,727.18,0.0,0.0,0.0
17444,2,17444,46,9.58,-0.87,2.9,0.5,-0.15,-0.10,5.75,9.88,92891.25,727.9,0.0,0.0,0.0
17490,2,17490,46,10.4,-0.55,4.27,0.6,-0.4,-0.9,5.75,9.88,92890.14,726.50,0.0,0.0,0.0
17536,2,17536,46,8.94,-0.49,3.8,0.5,-0.6,-0.9,5.75,9.89,92896.69,726.99,0.0,0.0,0.0
17582,2,17582,46,8.93,-0.39,2.78,0.5,-0.9,-0.5,5.68,9.89,92895.58,726.99,0.0,0.0,0.0
17633,2,17633,51,6.5,0.31,2.66,0.9,-0.9,-0.8,5.75,9.88,92890.14,727.9,0.0,0.0,0.0
17679,2,17679,46,10.77,-0.63,3.2,0.5,-0.4,-0.6,5.75,9.87,92892.28,727.9,0.0,0.0,0.0
17725,2,17725,46,8.86,-0.45,2.50,0.6,-0.5,-0.12,5.75,9.89,92894.51,727.28,0.0,0.0,0.0
17771,2,17771,46,8.98,-0.38,2.99,0.1,-0.22,-0.13,5.68,9.88,92894.51,726.99,0.0,0.0,0.0
17817,2,17817,46,10.25,-0.22,3.57,0.2,-0.10,-0.9,5.68,9.89,92890.14,727.9,0.0,0.0,0.0
17863,2,17863,46,9.55,-0.44,3.39,0.3,-0.11,-0.8,5.68,9.89,92894.51,727.9,0.0,0.0,0.0
17912,2,17912,49,7.14,-0.96,2.95,0.3,-0.10,0.0,5.75,9.89,92890.18,726.99,0.0,0.0,0.0
17958,2,17958,46,10.27,0.15,2.24,0.7,-0.17,-0.8,5.81,9.89,92894.47,726.79,0.0,0.0,0.0
18004,2,18004,46,11.49,-0.93,2.75,0.5,-0.9,-0.6,5.68,9.88,92887.96,726.50,0.0,0.0,0.0
18050,2,18050,46,7.41,-0.34,3.90,0.5,-0.2,-0.15,5.62,9.90,92894.47,726.50,0.0,0.0,0.0
18096,2,18096,46,9.38,-0.65,2.61,0.2,-0.13,-0.9,5.68,9.89,92890.10,726.89,0.0,0.0,0.0
18147,2,18147,51,8.35,-0.71,3.4,0.2,-0.7,-0.10,5.75,9.89,92891.21,727.38,0.0,0.0,0.0
18196,2,18196,49,7.80,-0.11,2.13,0.2,-0.12,-0.7,5.75,9.88,92894.51,727.38,0.0,0.0,0.0
18242,2,18242,46,7.26,0.94,2.92,0.0,-0.14,0.2,5.68,9.88,92885.81,726.70,0.0,0.0,0.0
18288,2,18288,46,9.84,0.79,4.15,0.3,-0.9,-0.7,5.68,9.88,92897.77,726.70,0.0,0.0,0.0
18334,2,18334,46,7.57,0.83,2.15,0.7,-0.6,-0.14,5.75,9.89,92896.62,726.80,0.0,0.0,0.0
18381,2,18381,47,10.29,-0.92,3.52,0.4,-0.8,-0.10,5.75,9.89,92894.51,726.51,0.0,0.0,0.0
18427,2,18427,46,9.41,0.39,3.46,0.4,-0.12,-0.12,5.75,9.90,92894.51,726.90,0.0,0.0,0.0
18476,2,18476,49,8.56,-0.49,3.23,0.7,-0.7,-0.10,5.75,9.88,92901.3,726.70,0.0,0.0,0.0
18522,2,18522,46,8.26,-0.56,2.21,0.9,-0.7,-0.11,5.75,9.89,92891.21,726.89,0.0,0.0,0.0
18568,2,18568,46,9.82,-0.20,2.49,0.5,-0.9,-0.15,5.68,9.89,92895.58,726.89,0.0,0.0,0.0
18614,2,18614,46,9.31,-0.31,3.34,0.1,-0.7,-0.12,5.75,9.90,92895.58,727.9,0.0,0.0,0.0
18675,2,18675,61,9.29,-1.38,2.68,0.4,-0.9,-0.11,5.68,9.88,92889.7,726.99,0.0,0.0,0.0
18721,2,18721,46,9.46,-0.55,2.91,0.4,-0.9,-0.9,5.75,9.89,92883.59,726.21,0.0,0.0,0.0
18764,2,18764,43,9.48,-0.37,2.92,0.4,-0.9,-0.9,5.68,9.89,92887.96,726.51,0.0,0.0,0.0
18810,2,18810,46,9.25,-0.38,2.90,0.4,-0.9,-0.9,5.68,9.89,92895.58,726.99,0.0,0.0,0.0
18856,2,18856,46,9.31,-0.43,2.99,0.4,-0.9,-0.9,5.68,9.90,92894.47,726.90,0.0,0.0,0.0
18902,2,18902,46,9.21,-0.38,2.99,0.4,-0.9,-0.10,5.75,9.89,92890.10,726.99,0.0,0.0,0.0
18948,2,18948,46,9.43,-0.44,3.10,0.4,-0.9,-0.9,5.81,9.89,92896.66,727.19,0.0,0.0,0.0
18994,2,18994,46,9.31,-0.44,2.95,0.4,-0.9,-0.10,5.75,9.90,92894.43,727.78,0.0,0.0,0.0
19037,2,19037,43,9.58,-0.45,2.91,0.4,-0.10,-0.10,5.68,9.90,92895.54,726.60,0.0,0.0,0.0
19083,2,19083,46,9.98,-0.51,3.1,0.4,-0.7,-0.9,5.68,9.90,92891.17,726.80,0.0,0.0,0.0
19129,2,19129,46,9.61,-0.73,2.67,0.2,-0.8,-0.10,5.75,9.90,92894.47,726.99,0.0,0.0,0.0
19180,2,19180,51,9.25,-0.46,3.82,0.3,-0.14,-0.9,5.68,9.89,92890.10,727.18,0.0,0.0,0.0
19226,2,19226,46,9.34,-0.18,3.15,0.13,-0.7,-0.6,5.81,9.89,92895.54,727.48,0.0,0.0,0.0
19272,2,19272,46,9.24,-0.39,2.31,0.11,-0.11,-0.7,5.75,9.89,92889.7,727.18,0.0,0.0,0.0
19315,2,19315,43,9.42,-0.31,3.34,0.13,-0.10,-0.6,5.81,9.89,92895.54,727.9,0.0,0.0,0.0
19361,2,19361,46,9.97,-0.32,2.65,0.13,-0.10,-0.6,5.75,9.90,92886.85,727.38,0.0,0.0,0.0
19408,2,19408,47,9.79,-0.68,2.84,0.12,-0.10,-0.8,5.81,9.90,92891.17,726.70,0.0,0.0,0.0
19454,2,19454,46,10.68,-0.43,2.95,0.9,-0.11,-0.11,5.68,9.90,92898.84,726.80,0.0,0.0,0.0
19500,2,19500,46,10.98,-0.29,2.10,0.10,-0.10,-0.24,5.75,9.90,92891.17,726.80,0.0,0.0,0.0
19546,2,19546,46,9.8,0.2,3.77,0.10,-0.5,-0.32,5.75,9.90,92894.51,726.79,0.0,0.0,0.0
19589,2,19589,43,9.54,-0.13,3.12,0.11,-0.8,-0.34,5.81,9.89,92887.92,727.19,0.0,0.0,0.0
19635,2,19635,46,9.49,-0.32,2.78,0.6,-0.22,-0.36,5.75,9.90,92894.47,726.99,0.0,0.0,0.0
19686,2,19686,51,9.3,0.4,2.90,0.4,-0.32,-0.31,5.81,9.89,92894.47,727.28,0.0,0.0,0.0
19732,2,19732,46,9.16,-0.49,3.9,0.4,-0.28,-0.28,5.81,9.89,92891.17,727.48,0.0,0.0,0.0
19778,2,19778,46,8.88,0.71,2.58,0.0,-0.38,-0.23,5.81,9.90,92884.62,727.28,0.0,0.0,0.0
19824,2,19824,46,8.86,0.70,2.56,0.2,-0.20,-0.21,5.81,9.90,92890.10,726.80,0.0,0.0,0.0
19867,2,19867,43,9.21,0.53,2.17,0.4,-0.19,-0.17,5.81,9.90,92891.21,727.19,0.0,0.0,0.0
19913,2,19913,46,9.27,-0.25,2.43,0.3,-0.7,-0.12,5.87,9.90,92890.10,727.0,0.0,0.0,0.0
19959,2,19959,46,9.73,-0.56,3.15,0.3,0.6,-0.8,5.87,9.89,92892.25,727.97,0.0,0.0,0.0
20005,2,20005,46,9.35,0.93,2.92,0.1,-0.11,-0.5,5.87,9.90,92893.36,726.80,0.0,0.0,0.0
20051,2,20051,46,9.45,0.78,2.41,0.9,0.3,-0.5,5.81,9.90,92894.43,727.68,0.0,0.0,0.0
20097,2,20097,46,9.38,0.12,2.57,0.7,-0.4,0.0,5.87,9.90,92895.54,726.70,0.0,0.0,0.0
20140,2,20140,43,10.23,0.11,2.37,0.8,0.5,-0.3,5.87,9.90,92895.54,726.60,0.0,0.0,0.0
20191,2,20191,51,8.82,-0.34,3.68,-0.2,-0.28,-0.4,5.87,9.90,92894.47,727.19,0.0,0.0,0.0
20237,2,20237,46,9.52,0.48,2.58,0.1,0.0,-0.6,5.87,9.90,92896.62,727.58,0.0,0.0,0.0
20283,2,20283,46,9.17,0.32,2.77,0.2,-0.6,-0.6,5.87,9.90,92893.32,726.90,0.0,0.0,0.0
20329,2,20329,46,8.85,-0.13,2.87,0.2,-0.2,-0.5,5.81,9.90,92896.62,726.90,0.0,0.0,0.0
20375,2,20375,46,9.23,0.6,3.26,0.2,0.2,0.0,5.87,9.90,92892.28,727.9,0.0,0.0,0.0
20419,2,20419,44,9.33,0.0,2.54,0.7,0.23,-0.4,5.93,9.91,92890.10,727.9,0.0,0.0,0.0
20465,2,20465,46,9.47,-0.36,3.25,-0.4,-0.12,0.1,5.87,9.89,92891.17,727.48,0.0,0.0,0.0
20511,2,20511,46,9.40,-0.62,3.19,-0.4,-0.8,0.3,5.87,9.91,92887.88,726.99,0.0,0.0,0.0
20557,2,20557,46,9.25,0.53,3.34,-0.5,-0.9,0.5,5.81,9.90,92885.70,727.48,0.0,0.0,0.0
20603,2,20603,46,9.33,-0.15,2.90,-0.1,-0.7,0.6,5.87,9.90,92893.36,726.99,0.0,0.0,0.0
20649,2,20649,46,9.37,-0.91,2.33,-0.7,-0.11,0.10,5.87,9.90,92891.21,727.9,0.0,0.0,0.0
20708,2,20708,59,9.41,-0.70,2.97,-0.11,-0.11,0.11,5.81,9.88,92894.51,726.99,0.0,0.0,0.0
20754,2,20754,46,15.6,-0.47,3.0,0.15,0.1,-0.26,5.81,9.89,92889.7,727.38,0.0,0.0,0.0
20800,2,20800,46,8.81,-0.85,3.21,-0.5,-0.13,-0.14,5.81,9.89,92892.32,727.48,0.0,0.0,0.0
20846,2,20846,46,9.59,-0.31,3.40,0.1,-0.11,-0.9,5.81,9.90,92894.47,727.19,0.0,0.0,0.0
20892,2,20892,46,9.43,-0.30,3.14,0.4,-0.8,-0.11,5.87,9.90,92891.17,726.99,0.0,0.0,0.0
20938,2,20938,46,9.48,-0.48,2.82,0.4,-0.8,-0.9,5.81,9.90,92895.58,726.99,0.0,0.0,0.0
20981,2,20981,43,9.48,-0.40,3.4,0.4,-0.9,-0.10,5.81,9.90,92887.92,727.28,0.0,0.0,0.0
21027,2,21027,46,9.33,-0.32,3.5,0.4,-0.9,-0.10,5.81,9.90,92887.88,726.70,0.0,0.0,0.0
21073,2,21073,46,9.2,-0.35,2.78,0.4,-0.10,-0.10,5.81,9.90,92886.81,726.90,0.0,0.0,0.0
21119,2,21119,46,9.29,-0.41,3.0,0.4,-0.9,-0.9,5.81,9.90,92892.25,727.39,0.0,0.0,0.0
21165,2,21165,46,9.32,-0.40,2.88,0.4,-0.9,-0.9,5.75,9.91,92892.25,726.71,0.0,0.0,0.0
21217,2,21217,52,9.37,-0.40,2.90,0.4,-0.8,-0.9,5.75,9.90,92886.85,727.29,0.0,0.0,0.0
21260,2,21260,43,10.34,-0.44,3.18,0.3,-0.9,-0.8,5.75,9.89,92891.17,727.0,0.0,0.0,0.0
21306,2,21306,46,9.10,-0.24,2.82,0.4,-0.9,-0.10,5.75,9.90,92894.43,726.80,0.0,0.0,0.0
21352,2,21352,46,9.11,-0.38,3.14,0.4,-0.8,-0.10,5.81,9.90,92886.81,726.80,0.0,0.0,0.0
21398,2,21398,46,9.67,-0.51,3.5,0.4,-0.9,-0.9,5.75,9.91,92887.92,726.41,0.0,0.0,0.0
21445,2,21445,47,9.16,-0.39,2.79,0.4,-0.9,-0.10,5.75,9.91,92889.0,726.80,0.0,0.0,0.0
21491,2,21491,46,9.63,-0.43,3.23,0.4,-0.9,-0.9,5.81,9.90,92897.69,727.9,0.0,0.0,0.0
21534,2,21534,43,9.31,-0.42,2.86,0.4,-0.10,-0.9,5.81,9.90,92891.14,727.39,0.0,0.0,0.0
21580,2,21580,46,9.50,-0.46,3.1,0.4,-0.9,-0.9,5.75,9.91,92892.25,727.48,0.0,0.0,0.0
21626,2,21626,46,9.47,-0.41,3.21,0.3,-0.9,-0.9,5.75,9.90,92892.25,727.58,0.0,0.0,0.0
21672,2,21672,46,9.55,-0.41,3.12,0.4,-0.9,-0.10,5.75,9.91,92892.25,727.19,0.0,0.0,0.0
21723,2,21723,51,9.42,-0.23,2.43,0.4,-0.9,-0.9,5.81,9.90,92892.21,726.80,0.0,0.0,0.0
21771,2,21771,48,9.64,-0.46,2.96,0.4,-0.9,-0.9,5.81,9.91,92890.10,726.51,0.0,0.0,0.0
21817,2,21817,46,9.48,-0.40,2.90,0.4,-0.9,-0.9,5.81,9.90,92885.70,727.19,0.0,0.0,0.0
21863,2,21863,46,9.36,-0.39,2.98,0.4,-0.10,-0.9,5.81,9.91,92892.25,727.19,0.0,0.0,0.0
21909,2,21909,46,9.44,-0.41,2.96,0.4,-0.9,-0.9,5.81,9.90,92890.3,727.19,0.0,0.0,0.0
21955,2,21955,46,9.34,-0.41,3.1,0.4,-0.9,-0.9,5.81,9.91,92888.96,726.90,0.0,0.0,0.0
22001,2,22001,46,9.66,-0.51,3.0,0.4,-0.9,-0.9,5.75,9.90,92887.88,727.10,0.0,0.0,0.0
22049,2,22049,48,9.38,-0.41,3.9,0.4,-0.8,-0.9,5.75,9.90,92893.36,726.41,0.0,0.0,0.0
22095,2,22095,46,9.45,-0.43,2.98,0.4,-0.9,-0.9,5.75,9.91,92894.47,727.9,0.0,0.0,0.0
22141,2,22141,46,9.38,-0.41,2.99,0.4,-0.10,-0.9,5.81,9.90,92894.47,727.48,0.0,0.0,0.0
22187,2,22187,46,9.48,-0.44,2.97,0.4,-0.9,-0.9,5.81,9.90,92891.17,727.67,0.0,0.0,0.0
22250,2,22250,63,9.66,-0.41,3.10,0.4,-0.9,-0.9,5.75,9.88,92888.0,726.79,0.0,0.0,0.0
22296,2,22296,46,9.32,-0.41,3.0,0.4,-0.8,-0.9,5.75,9.88,92890.18,727.67,0.0,0.0,0.0
22345,2,22345,49,9.51,-0.43,2.96,0.4,-0.9,-0.9,5.75,9.88,92894.55,726.99,0.0,0.0,0.0
22391,2,22391,46,9.53,-0.42,2.94,0.4,-0.10,-0.9,5.81,9.87,92892.36,727.18,0.0,0.0,0.0
22437,2,22437,46,9.52,-0.38,2.99,0.4,-0.9,-0.9,5.81,9.88,92887.96,727.77,0.0,0.0,0.0
22484,2,22484,47,9.50,-0.44,3.7,0.4,-0.9,-0.9,5.75,9.88,92896.73,727.28,0.0,0.0,0.0
22530,2,22530,46,9.43,-0.42,3.0,0.4,-0.9,-0.10,5.75,9.88,92890.14,726.60,0.0,0.0,0.0
22576,2,22576,46,9.43,-0.45,2.93,0.4,-0.9,-0.9,5.81,9.88,92893.40,727.9,0.0,0.0,0.0
22625,2,22625,49,9.44,-0.48,2.95,0.4,-0.8,-0.10,5.81,9.89,92890.18,726.89,0.0,0.0,0.0
22671,2,22671,46,9.67,-0.49,3.17,0.4,-0.7,-0.8,5.75,9.88,92893.47,726.60,0.0,0.0,0.0
22717,2,22717,46,9.52,-0.44,2.96,0.4,-0.10,-0.9,5.75,9.88,92894.51,727.9,0.0,0.0,0.0
22768,2,22768,51,9.35,-0.39,3.3,0.4,-0.8,-0.10,5.75,9.88,92887.96,726.60,0.0,0.0,0.0
22814,2,22814,46,9.43,-0.40,3.1,0.4,-0.9,-0.9,5.75,9.88,92889.7,726.69,0.0,0.0,0.0
22860,2,22860,46,9.53,-0.47,2.88,0.4,-0.8,-0.10,5.81,9.88,92893.43,726.70,0.0,0.0,0.0
22910,2,22910,50,9.36,-0.44,2.97,0.4,-0.9,-0.9,5.75,9.88,92894.51,727.9,0.0,0.0,0.0
22956,2,22956,46,9.32,-0.37,3.9,0.4,-0.9,-0.9,5.87,9.88,92890.14,727.18,0.0,0.0,0.0
23002,2,23002,46,9.49,-0.44,2.95,0.4,-0.9,-0.10,5.87,9.88,92890.10,726.41,0.0,0.0,0.0
23048,2,23048,46,9.43,-0.46,3.4,0.4,-0.9,-0.9,5.75,9.89,92893.40,727.38,0.0,0.0,0.0
23094,2,23094,46,9.80,-0.62,2.91,0.5,-0.9,-0.8,5.81,9.89,92890.14,726.50,0.0,0.0,0.0
23140,2,23140,46,9.45,-0.38,2.94,0.4,-0.7,-0.11,5.81,9.88,92890.14,726.70,0.0,0.0,0.0
23189,2,23189,49,9.61,-0.49,2.89,0.4,-0.10,-0.9,5.81,9.88,92893.40,726.70,0.0,0.0,0.0
23235,2,23235,46,9.40,-0.42,3.2,0.5,-0.9,-0.9,5.87,9.89,92895.58,727.28,0.0,0.0,0.0
23296,2,23296,61,9.10,-0.46,2.50,0.4,-0.9,-0.9,5.81,9.87,92886.89,726.99,0.0,0.0,0.0
23342,2,23342,46,9.10,-0.55,2.76,0.4,-0.9,-0.9,5.81,9.88,92888.0,727.38,0.0,0.0,0.0
23388,2,23388,46,9.65,-0.48,2.93,0.4,-0.10,-0.9,5.81,9.89,92894.51,726.60,0.0,0.0,0.0
23434,2,23434,46,9.46,-0.34,3.5,0.4,-0.8,-0.10,5.81,9.89,92891.21,726.90,0.0,0.0,0.0
23484,2,23484,50,10.11,-0.43,3.11,0.4,-0.9,-0.9,5.81,9.88,92886.85,726.80,0.0,0.0,0.0
23530,2,23530,46,8.0,-0.32,2.47,0.3,-0.10,-0.11,5.81,9.90,92895.58,727.9,0.0,0.0,0.0
23576,2,23576,46,9.85,-0.54,3.46,0.4,-0.5,-0.9,5.87,9.89,92893.36,727.19,0.0,0.0,0.0
23622,2,23622,46,9.50,-0.51,2.96,0.4,-0.10,-0.8,5.81,9.90,92891.17,727.0,0.0,0.0,0.0
23668,2,23668,46,9.15,-0.44,2.86,0.4,-0.9,-0.10,5.87,9.90,92899.91,727.29,0.0,0.0,0.0
23714,2,23714,46,9.35,-0.38,2.82,0.4,-0.8,-0.10,5.87,9.90,92894.47,726.80,0.0,0.0,0.0
23757,2,23757,43,9.51,-0.44,3.15,0.4,-0.10,-0.9,5.81,9.91,92892.25,726.31,0.0,0.0,0.0
23808,2,23808,51,9.40,-0.41,2.92,0.4,-0.9,-0.9,5.81,9.90,92893.36,726.51,0.0,0.0,0.0
23854,2,23854,46,9.56,-0.41,3.6,0.4,-0.8,-0.9,5.87,9.91,92895.54,726.80,0.0,0.0,0.0
23900,2,23900,46,9.37,-0.39,2.77,0.4,-0.10,-0.9,5.87,9.91,92890.3,727.49,0.0,0.0,0.0
23946,2,23946,46,9.28,-0.55,3.73,0.6,-0.9,-0.10,5.81,9.90,92893.32,726.61,0.0,0.0,0.0
23992,2,23992,46,9.90,-0.32,2.55,0.10,-0.10,-0.7,5.81,9.91,92892.21,727.10,0.0,0.0,0.0
24035,2,24035,43,9.60,-0.36,3.29,0.8,-0.8,-0.8,5.75,9.91,92894.39,726.71,0.0,0.0,0.0
24081,2,24081,46,9.71,-0.43,2.41,0.7,-0.10,-0.7,5.87,9.91,92892.25,726.71,0.0,0.0,0.0
24127,2,24127,46,9.34,-0.47,2.99,0.5,-0.9,-0.10,5.81,9.91,92896.58,727.39,0.0,0.0,0.0
24173,2,24173,46,9.75,-0.47,2.78,0.3,-0.9,-0.9,5.87,9.91,92892.21,727.19,0.0,0.0,0.0
24219,2,24219,46,9.34,-0.43,3.4,0.4,-0.9,-0.10,5.75,9.92,92893.32,727.10,0.0,0.0,0.0
24265,2,24265,46,9.35,-0.41,3.6,0.5,-0.9,-0.10,5.81,9.91,92897.69,726.71,0.0,0.0,0.0
24313,2,24313,48,9.36,-0.44,3.5,0.5,-0.8,-0.9,5.87,9.90,92899.88,726.61,0.0,0.0,0.0
24359,2,24359,46,9.50,-0.39,2.80,0.4,-0.10,-0.8,5.81,9.91,92889.0,727.19,0.0,0.0,0.0
24405,2,24405,46,9.32,-0.43,3.12,0.3,-0.12,-0.7,5.81,9.90,92894.39,727.0,0.0,0.0,0.0
24451,2,24451,46,9.62,-0.40,3.3,0.4,-0.8,-0.9,5.87,9.91,92890.3,727.0,0.0,0.0,0.0
24498,2,24498,47,9.39,-0.44,2.92,0.4,-0.7,-0.9,5.87,9.92,92890.3,727.29,0.0,0.0,0.0
24544,2,24544,46,9.50,-0.54,2.89,0.4,-0.10,-0.9,5.81,9.91,92892.25,726.90,0.0,0.0,0.0
24587,2,24587,43,9.85,-0.53,3.21,0.4,-0.9,-0.9,5.75,9.91,92892.25,727.29,0.0,0.0,0.0
24633,2,24633,46,9.45,-0.39,2.97,0.4,-0.9,-0.9,5.81,9.92,92894.39,726.90,0.0,0.0,0.0
24679,2,24679,46,9.46,-0.44,2.98,0.4,-0.9,-0.9,5.87,9.91,92892.25,727.39,0.0,0.0,0.0
24725,2,24725,46,9.48,-0.40,3.9,0.4,-0.8,-0.9,5.81,9.91,92891.10,727.0,0.0,0.0,0.0
24771,2,24771,46,9.51,-0.44,2.94,0.4,-0.9,-0.9,5.81,9.92,92892.25,727.0,0.0,0.0,0.0
24822,2,24822,51,9.47,-0.52,2.93,0.4,-0.9,-0.9,5.81,9.91,92889.0,727.19,0.0,0.0,0.0
24865,2,24865,43,9.40,-0.44,2.99,0.4,-0.9,-0.9,5.81,9.90,92890.7,727.10,0.0,0.0,0.0
24911,2,24911,46,9.44,-0.42,2.99,0.4,-0.9,-0.9,5.81,9.91,92888.96,727.58,0.0,0.0,0.0
24957,2,24957,46,9.46,-0.46,2.98,0.4,-0.9,-0.10,5.87,9.92,92886.77,727.0,0.0,0.0,0.0
25003,2,25003,46,9.44,-0.41,3.4,0.4,-0.9,-0.9,5.87,9.92,92888.96,727.10,0.0,0.0,0.0
25049,2,25049,46,9.46,-0.43,2.95,0.4,-0.9,-0.9,5.87,9.91,92892.21,727.10,0.0,0.0,0.0
25095,2,25095,46,9.37,-0.39,2.93,0.4,-0.9,-0.9,5.87,9.92,92887.84,727.10,0.0,0.0,0.0
25139,2,25139,44,9.38,-0.43,3.2,0.4,-0.9,-0.9,5.87,9.92,92886.81,727.29,0.0,0.0,0.0
25185,2,25185,46,9.38,-0.42,2.98,0.4,-0.9,-0.10,5.87,9.91,92885.70,726.90,0.0,0.0,0.0
25231,2,25231,46,9.59,-0.38,3.4,0.4,-0.9,-0.9,5.87,9.91,92891.10,727.20,0.0,0.0,0.0
25277,2,25277,46,8.89,-0.31,2.95,0.4,-0.9,-0.9,5.81,9.92,92892.21,726.61,0.0,0.0,0.0
25337,2,25337,60,9.36,-0.39,3.27,0.4,-0.7,-0.10,5.87,9.91,92894.43,726.90,0.0,0.0,0.0
25383,2,25383,46,9.38,-0.41,3.4,0.4,-0.9,-0.9,5.87,9.90,92890.7,727.48,0.0,0.0,0.0
25426,2,25426,43,9.54,-0.52,3.14,0.4,-0.9,-0.9,5.87,9.91,92893.32,726.61,0.0,0.0,0.0
25472,2,25472,46,9.37,-0.45,2.92,0.4,-0.9,-0.9,5.87,9.91,92886.77,727.19,0.0,0.0,0.0
25519,2,25519,47,9.42,-0.42,2.98,0.4,-0.9,-0.9,5.93,9.92,92890.7,727.19,0.0,0.0,0.0
25565,2,25565,46,9.41,-0.43,3.2,0.4,-0.9,-0.9,5.87,9.92,92891.10,726.71,0.0,0.0,0.0
25611,2,25611,46,9.44,-0.44,2.99,0.4,-0.9,-0.9,5.87,9.91,92893.28,727.39,0.0,0.0,0.0
25657,2,25657,46,9.42,-0.41,2.98,0.4,-0.9,-0.9,5.93,9.90,92888.96,727.29,0.0,0.0,0.0
25700,2,25700,43,9.43,-0.46,2.95,0.4,-0.9,-0.9,5.81,9.91,92887.84,727.29,0.0,0.0,0.0
25746,2,25746,46,9.52,-0.46,2.93,0.4,-0.9,-0.9,5.81,9.90,92887.84,726.71,0.0,0.0,0.0
25792,2,25792,46,9.33,-0.39,2.96,0.4,-0.9,-0.9,5.87,9.91,92891.14,727.0,0.0,0.0,0.0
25844,2,25844,52,9.33,-0.46,3.21,0.4,-0.7,-0.9,5.93,9.91,92894.43,727.29,0.0,0.0,0.0
25890,2,25890,46,9.44,-0.40,3.1,0.4,-0.9,-0.9,5.93,9.92,92893.32,726.80,0.0,0.0,0.0
25936,2,25936,46,9.32,-0.43,3.3,0.4,-0.9,-0.9,5.87,9.90,92895.54,727.10,0.0,0.0,0.0
25979,2,25979,43,9.44,-0.42,2.98,0.4,-0.9,-0.9,5.93,9.91,92894.39,726.31,0.0,0.0,0.0
26025,2,26025,46,9.41,-0.42,3.1,0.4,-0.9,-0.9,5.87,9.91,92887.88,727.19,0.0,0.0,0.0
26071,2,26071,46,9.45,-0.45,2.95,0.4,-0.9,-0.9,5.87,9.91,92890.7,726.61,0.0,0.0,0.0
26117,2,26117,46,9.43,-0.43,2.99,0.4,-0.9,-0.10,5.87,9.91,92893.32,727.78,0.0,0.0,0.0
26163,2,26163,46,9.41,-0.44,2.96,0.4,-0.9,-0.9,5.93,9.91,92894.39,727.19,0.0,0.0,0.0
26209,2,26209,46,9.39,-0.43,2.94,0.4,-0.9,-0.9,5.87,9.92,92893.32,727.19,0.0,0.0,0.0
26252,2,26252,43,9.44,-0.44,2.98,0.4,-0.9,-0.9,5.81,9.91,92890.3,726.90,0.0,0.0,0.0
26298,2,26298,46,9.45,-0.42,2.98,0.4,-0.9,-0.10,5.87,9.91,92886.77,726.80,0.0,0.0,0.0
26349,2,26349,51,9.38,-0.43,2.96,0.4,-0.9,-0.9,5.87,9.91,92891.14,727.19,0.0,0.0,0.0
26395,2,26395,46,9.46,-0.41,2.96,0.4,-0.9,-0.9,5.87,9.91,92887.84,727.19,0.0,0.0,0.0
26441,2,26441,46,9.51,-0.46,3.2,0.4,-0.9,-0.9,5.93,9.91,92890.3,726.90,0.0,0.0,0.0
26487,2,26487,46,9.47,-0.43,2.99,0.4,-0.9,-0.9,5.87,9.90,92886.77,726.71,0.0,0.0,0.0
26531,2,26531,44,9.48,-0.45,2.94,0.4,-0.9,-0.9,5.93,9.91,92887.84,727.10,0.0,0.0,0.0
26577,2,26577,46,9.43,-0.39,3.3,0.4,-0.9,-0.10,5.87,9.91,92886.77,726.90,0.0,0.0,0.0
26623,2,26623,46,9.37,-0.38,2.98,0.4,-0.9,-0.9,5.87,9.92,92888.96,727.59,0.0,0.0,0.0
26669,2,26669,46,9.44,-0.39,3.6,0.4,-0.9,-0.10,5.87,9.92,92888.92,726.61,0.0,0.0,0.0
26715,2,26715,46,9.34,-0.41,3.3,0.4,-0.9,-0.9,5.87,9.92,92891.10,726.72,0.0,0.0,0.0
26761,2,26761,46,9.41,-0.42,2.96,0.4,-0.9,-0.9,5.87,9.91,92897.69,727.10,0.0,0.0,0.0
26804,2,26804,43,9.44,-0.41,2.99,0.4,-0.9,-0.9,5.87,9.91,92894.39,726.22,0.0,0.0,0.0
26855,2,26855,51,9.42,-0.43,3.5,0.4,-0.9,-0.9,5.87,9.91,92890.3,726.90,0.0,0.0,0.0
26901,2,26901,46,9.47,-0.47,3.0,0.4,-0.9,-0.9,5.87,9.92,92892.17,726.81,0.0,0.0,0.0
26947,2,26947,46,9.41,-0.40,2.98,0.4,-0.9,-0.9,5.87,9.92,92892.21,727.20,0.0,0.0,0.0
26993,2,26993,46,9.42,-0.44,3.0,0.4,-0.9,-0.9,5.87,9.92,92891.10,727.0,0.0,0.0,0.0
27039,2,27039,46,9.41,-0.42,3.1,0.4,-0.9,-0.9,5.81,9.92,92896.54,727.19,0.0,0.0,0.0
27082,2,27082,43,9.42,-0.37,3.5,0.4,-0.9,-0.9,5.87,9.92,92891.10,726.90,0.0,0.0,0.0
27128,2,27128,46,9.40,-0.44,3.2,0.4,-0.9,-0.10,5.81,9.92,92888.96,727.19,0.0,0.0,0.0
27174,2,27174,46,9.43,-0.47,2.98,0.4,-0.9,-0.9,5.81,9.92,92886.73,727.29,0.0,0.0,0.0
27220,2,27220,46,9.51,-0.46,3.3,0.4,-0.9,-0.9,5.81,9.91,92894.35,727.0,0.0,0.0,0.0
27266,2,27266,46,9.43,-0.41,2.99,0.4,-0.9,-0.9,5.81,9.92,92887.80,726.91,0.0,0.0,0.0
27312,2,27312,46,9.42,-0.40,3.0,0.4,-0.9,-0.9,5.87,9.91,92882.40,726.80,0.0,0.0,0.0
27371,2,27371,59,9.39,-0.39,3.1,0.4,-0.9,-0.9,5.87,9.89,92885.70,726.80,0.0,0.0,0.0
27417,2,27417,46,9.46,-0.43,3.6,0.4,-0.9,-0.9,5.87,9.91,92894.43,726.80,0.0,0.0,0.0
27463,2,27463,46,9.45,-0.46,2.99,0.4,-0.9,-0.9,5.81,9.91,92884.58,727.39,0.0,0.0,0.0
27509,2,27509,46,9.40,-0.41,3.2,0.4,-0.9,-0.9,5.87,9.92,92895.50,727.19,0.0,0.0,0.0
27556,2,27556,47,9.51,-0.44,3.5,0.4,-0.9,-0.10,5.87,9.92,92895.46,726.81,0.0,0.0,0.0
27602,2,27602,46,9.44,-0.42,3.1,0.4,-0.9,-0.9,5.87,9.92,92895.50,727.49,0.0,0.0,0.0
27645,2,27645,43,9.52,-0.42,2.93,0.4,-0.9,-0.9,5.87,9.92,92890.3,727.29,0.0,0.0,0.0
27691,2,27691,46,9.46,-0.45,2.99,0.4,-0.9,-0.9,5.87,9.92,92887.84,727.0,0.0,0.0,0.0
27737,2,27737,46,9.36,-0.48,2.93,0.4,-0.9,-0.9,5.81,9.93,92893.28,727.10,0.0,0.0,0.0
27783,2,27783,46,9.46,-0.48,2.94,0.4,-0.9,-0.9,5.87,9.92,92886.69,726.61,0.0,0.0,0.0
27829,2,27829,46,9.38,-0.42,3.5,0.4,-0.9,-0.9,5.87,9.92,92887.80,727.0,0.0,0.0,0.0
27880,2,27880,51,9.48,-0.39,2.99,0.4,-0.9,-0.9,5.87,9.92,92888.92,727.0,0.0,0.0,0.0
27923,2,27923,43,9.46,-0.44,2.96,0.4,-0.9,-0.9,5.93,9.92,92893.28,727.0,0.0,0.0,0.0
27969,2,27969,46,9.44,-0.43,2.96,0.4,-0.9,-0.9,5.81,9.92,92888.88,726.71,0.0,0.0,0.0
28015,2,28015,46,9.46,-0.45,2.98,0.4,-0.9,-0.9,5.81,9.92,92896.50,727.49,0.0,0.0,0.0
28061,2,28061,46,9.32,-0.39,3.2,0.4,-0.9,-0.9,5.87,9.92,92893.25,726.81,0.0,0.0,0.0
28107,2,28107,46,9.39,-0.44,3.5,0.4,-0.9,-0.10,5.87,9.92,92900.87,727.68,0.0,0.0,0.0
28153,2,28153,46,9.36,-0.41,3.6,0.4,-0.9,-0.9,5.93,9.92,92896.54,727.10,0.0,0.0,0.0
28196,2,28196,43,9.41,-0.42,3.7,0.4,-0.9,-0.9,5.93,9.92,92891.6,726.71,0.0,0.0,0.0
28242,2,28242,46,9.48,-0.45,3.1,0.4,-0.9,-0.9,5.87,9.92,92891.6,727.0,0.0,0.0,0.0
28288,2,28288,46,9.45,-0.45,2.98,0.4,-0.9,-0.10,5.87,9.92,92887.80,727.10,0.0,0.0,0.0
28334,2,28334,46,9.51,-0.46,2.97,0.4,-0.9,-0.9,5.93,9.93,92891.6,727.10,0.0,0.0,0.0
28385,2,28385,51,9.43,-0.40,3.1,0.4,-0.9,-0.9,5.93,9.92,92888.88,727.10,0.0,0.0,0.0
28431,2,28431,46,9.42,-0.38,3.2,0.4,-0.9,-0.9,5.87,9.92,92893.28,727.19,0.0,0.0,0.0
28474,2,28474,43,9.45,-0.47,3.2,0.4,-0.9,-0.9,5.93,9.92,92898.72,726.71,0.0,0.0,0.0
28520,2,28520,46,9.37,-0.43,3.0,0.4,-0.9,-0.9,5.87,9.92,92886.73,726.91,0.0,0.0,0.0
28567,2,28567,47,9.47,-0.44,3.2,0.4,-0.10,-0.10,5.87,9.92,92891.6,727.30,0.0,0.0,0.0
28613,2,28613,46,9.34,-0.39,2.97,0.4,-0.9,-0.9,5.93,9.92,92889.99,726.61,0.0,0.0,0.0
28659,2,28659,46,9.56,-0.40,3.5,0.4,-0.9,-0.9,5.87,9.92,92891.6,727.59,0.0,0.0,0.0
28705,2,28705,46,9.46,-0.39,2.98,0.4,-0.9,-0.9,6.0,9.92,92882.36,727.49,0.0,0.0,0.0
28748,2,28748,43,9.33,-0.43,3.1,0.4,-0.9,-0.9,5.87,9.92,92886.73,726.32,0.0,0.0,0.0
28794,2,28794,46,9.42,-0.44,3.0,0.4,-0.9,-0.9,5.87,9.92,92894.32,726.71,0.0,0.0,0.0
28840,2,28840,46,9.42,-0.38,3.3,0.4,-0.9,-0.10,6.0,9.93,92896.54,726.71,0.0,0.0,0.0
28891,2,28891,51,9.45,-0.41,3.0,0.4,-0.9,-0.9,5.93,9.92,92886.73,726.32,0.0,0.0,0.0
28937,2,28937,46,9.42,-0.44,2.98,0.4,-0.9,-0.9,5.87,9.92,92896.50,726.81,0.0,0.0,0.0
28983,2,28983,46,9.37,-0.45,2.98,0.4,-0.9,-0.10,6.0,9.92,92893.28,726.71,0.0,0.0,0.0
29026,2,29026,43,9.41,-0.42,3.2,0.4,-0.9,-0.9,5.93,9.92,92894.35,727.0,0.0,0.0,0.0
29072,2,29072,46,9.37,-0.44,3.1,0.4,-0.9,-0.9,5.93,9.92,92891.10,726.71,0.0,0.0,0.0
29118,2,29118,46,9.46,-0.46,2.93,0.4,-0.9,-0.9,5.87,9.93,92896.54,726.91,0.0,0.0,0.0
29164,2,29164,46,9.58,-0.42,3.14,0.4,-0.9,-0.9,5.87,9.93,92894.32,726.42,0.0,0.0,0.0
29210,2,29210,46,9.56,-0.43,3.16,0.4,-0.8,-0.9,5.87,9.93,92887.77,726.62,0.0,0.0,0.0
29256,2,29256,46,9.47,-0.43,2.97,0.4,-0.10,-0.9,5.87,9.92,92895.43,727.0,0.0,0.0,0.0
29299,2,29299,43,9.44,-0.47,2.93,0.4,-0.9,-0.9,5.87,9.92,92893.25,727.29,0.0,0.0,0.0
29345,2,29345,46,9.50,-0.40,3.4,0.4,-0.8,-0.9,5.87,9.92,92889.99,727.40,0.0,0.0,0.0
29397,2,29397,52,9.43,-0.44,2.95,0.4,-0.9,-0.9,5.87,9.92,92893.28,726.32,0.0,0.0,0.0
29443,2,29443,46,9.44,-0.41,3.5,0.4,-0.9,-0.9,5.87,9.93,92896.50,726.91,0.0,0.0,0.0
29489,2,29489,46,9.48,-0.43,3.0,0.4,-0.9,-0.9,5.93,9.92,92893.25,727.79,0.0,0.0,0.0
29535,2,29535,46,9.35,-0.43,3.3,0.4,-0.9,-0.9,5.87,9.93,92893.28,727.10,0.0,0.0,0.0
29583,2,29583,48,9.35,-0.42,3.10,0.4,-0.8,-0.9,5.93,9.92,92896.54,727.78,0.0,0.0,0.0
29629,2,29629,46,9.30,-0.46,2.93,0.4,-0.9,-0.9,5.93,9.93,92894.35,726.71,0.0,0.0,0.0
29675,2,29675,46,9.36,-0.43,2.93,0.4,-0.9,-0.9,5.93,9.93,92886.65,727.29,0.0,0.0,0.0
29721,2,29721,46,9.43,-0.47,2.94,0.4,-0.9,-0.9,5.93,9.93,92891.6,727.1,0.0,0.0,0.0
29767,2,29767,46,9.42,-0.39,3.11,0.4,-0.9,-0.9,5.93,9.92,92894.35,726.62,0.0,0.0,0.0
29813,2,29813,46,9.38,-0.45,3.1,0.4,-0.9,-0.9,5.93,9.92,92892.17,727.39,0.0,0.0,0.0
29856,2,29856,43,9.37,-0.37,2.99,0.4,-0.9,-0.10,5.93,9.92,92897.57,727.20,0.0,0.0,0.0
29929,2,29929,73,9.45,-0.37,3.1,0.4,-0.9,-0.9,5.93,9.90,92896.62,726.71,0.0,0.0,0.0
29975,2,29975,46,9.53,-0.46,2.86,0.4,-0.9,-0.9,6.0,9.90,92891.14,727.10,0.0,0.0,0.0
30021,2,30021,46,9.48,-0.48,2.99,0.4,-0.9,-0.9,6.0,9.92,92891.10,727.39,0.0,0.0,0.0
30067,2,30067,46,9.47,-0.48,3.2,0.4,-0.9,-0.9,6.0,9.92,92891.10,727.20,0.0,0.0,0.0
30113,2,30113,46,9.37,-0.45,2.99,0.4,-0.9,-0.9,5.93,9.92,92886.77,727.0,0.0,0.0,0.0
30156,2,30156,43,9.39,-0.42,2.99,0.4,-0.9,-0.9,6.0,9.92,92888.92,727.59,0.0,0.0,0.0
30202,2,30202,46,9.34,-0.40,3.4,0.4,-0.9,-0.9,5.93,9.92,92893.25,726.91,0.0,0.0,0.0
30248,2,30248,46,9.36,-0.43,3.1,0.4,-0.9,-0.9,5.93,9.93,92891.6,727.20,0.0,0.0,0.0
30294,2,30294,46,9.47,-0.47,2.98,0.4,-0.9,-0.9,5.93,9.93,92893.25,727.49,0.0,0.0,0.0
30340,2,30340,46,9.45,-0.44,3.1,0.4,-0.9,-0.9,5.93,9.93,92895.39,727.1,0.0,0.0,0.0
30386,2,30386,46,9.49,-0.42,2.97,0.4,-0.9,-0.9,6.0,9.93,92894.35,726.62,0.0,0.0,0.0
30434,2,30434,48,9.46,-0.47,2.98,0.4,-0.9,-0.9,6.0,9.92,92891.6,727.49,0.0,0.0,0.0
30480,2,30480,46,9.43,-0.45,2.94,0.4,-0.9,-0.9,6.0,9.92,92886.73,727.30,0.0,0.0,0.0
30526,2,30526,46,9.33,-0.42,3.0,0.4,-0.9,-0.9,5.93,9.92,92892.17,727.59,0.0,0.0,0.0
30572,2,30572,46,9.48,-0.45,2.91,0.4,-0.9,-0.9,6.0,9.93,92893.21,727.49,0.0,0.0,0.0
30619,2,30619,47,9.45,-0.40,3.11,0.4,-0.9,-0.10,6.0,9.93,92898.69,727.11,0.0,0.0,0.0
30665,2,30665,46,9.44,-0.31,3.2,0.4,-0.9,-0.9,6.0,9.93,92889.99,726.81,0.0,0.0,0.0
30708,2,30708,43,9.36,-0.39,3.2,0.4,-0.8,-0.9,5.93,9.92,92893.25,727.1,0.0,0.0,0.0
30754,2,30754,46,9.44,-0.36,3.1,0.4,-0.9,-0.9,6.0,9.93,92893.25,727.10,0.0,0.0,0.0
30800,2,30800,46,9.34,-0.44,3.5,0.4,-0.8,-0.9,6.0,9.93,92888.84,726.81,0.0,0.0,0.0
30846,2,30846,46,9.48,-0.44,3.1,0.4,-0.9,-0.9,6.0,9.92,92894.35,727.1,0.0,0.0,0.0
30892,2,30892,46,9.31,-0.46,3.0,0.4,-0.9,-0.9,5.93,9.93,92897.57,727.30,0.0,0.0,0.0
30943,2,30943,51,9.48,-0.47,2.98,0.4,-0.9,-0.9,5.93,9.92,92888.88,726.61,0.0,0.0,0.0
30986,2,30986,43,9.52,-0.43,3.12,0.4,-0.9,-0.9,5.93,9.92,92895.43,726.81,0.0,0.0,0.0
31032,2,31032,46,9.46,-0.44,2.92,0.4,-0.10,-0.10,5.93,9.93,92889.95,727.30,0.0,0.0,0.0
31078,2,31078,46,9.48,-0.42,3.6,0.4,-0.9,-0.9,5.93,9.93,92889.95,726.62,0.0,0.0,0.0
31124,2,31124,46,9.31,-0.43,3.7,0.4,-0.8,-0.9,6.6,9.93,92889.95,727.40,0.0,0.0,0.0
31170,2,31170,46,9.36,-0.45,3.2,0.4,-0.9,-0.9,6.0,9.93,92889.95,727.11,0.0,0.0,0.0
31216,2,31216,46,9.42,-0.44,2.84,0.4,-0.10,-0.10,6.0,9.93,92886.69,726.81,0.0,0.0,0.0
31259,2,31259,43,9.45,-0.41,3.8,0.4,-0.8,-0.9,6.0,9.93,92893.25,726.81,0.0,0.0,0.0
31305,2,31305,46,9.37,-0.35,2.95,0.4,-0.9,-0.9,6.0,9.93,92894.32,726.91,0.0,0.0,0.0
31351,2,31351,46,9.41,-0.41,3.10,0.4,-0.9,-0.9,5.93,9.93,92887.77,726.52,0.0,0.0,0.0
31397,2,31397,46,9.35,-0.44,3.1,0.4,-0.9,-0.9,5.93,9.93,92899.72,727.50,0.0,0.0,0.0
31448,2,31448,51,9.46,-0.45,2.99,0.4,-0.9,-0.9,6.0,9.93,92889.95,726.91,0.0,0.0,0.0
31494,2,31494,46,9.50,-0.41,2.93,0.4,-0.9,-0.9,6.0,9.92,92893.25,727.11,0.0,0.0,0.0
31537,2,31537,43,9.41,-0.40,3.5,0.4,-0.8,-0.9,6.0,9.92,92891.2,727.1,0.0,0.0,0.0
31583,2,31583,46,9.41,-0.42,2.97,0.4,-0.9,-0.9,6.0,9.94,92901.91,727.30,0.0,0.0,0.0
31630,2,31630,47,9.46,-0.41,3.3,0.4,-0.9,-0.10,5.93,9.93,92888.84,726.91,0.0,0.0,0.0
31676,2,31676,46,9.43,-0.45,2.97,0.4,-0.9,-0.9,6.6,9.94,92887.77,727.50,0.0,0.0,0.0
31722,2,31722,46,9.42,-0.46,2.99,0.4,-0.9,-0.9,5.93,9.94,92887.73,726.91,0.0,0.0,0.0
31768,2,31768,46,9.44,-0.50,3.0,0.4,-0.9,-0.9,5.93,9.94,92899.68,727.20,0.0,0.0,0.0
31817,2,31817,49,9.44,-0.48,2.99,0.4,-0.8,-0.9,6.0,9.95,92894.24,726.62,0.0,0.0,0.0
31863,2,31863,46,9.45,-0.45,2.99,0.4,-0.9,-0.10,5.93,9.95,92892.10,727.11,0.0,0.0,0.0
31909,2,31909,46,9.46,-0.39,3.1,0.4,-0.9,-0.9,5.93,9.95,92886.61,727.21,0.0,0.0,0.0
31984,2,31984,75,9.40,-0.45,3.1,0.4,-0.9,-0.9,5.93,9.92,92888.92,727.30,0.0,0.0,0.0
32030,2,32030,46,9.41,-0.45,3.0,0.4,-0.9,-0.9,5.93,9.92,92891.6,726.91,0.0,0.0,0.0
32076,2,32076,46,9.35,-0.43,3.0,0.4,-0.9,-0.9,6.0,9.93,92898.65,726.62,0.0,0.0,0.0
32119,2,32119,43,9.46,-0.46,2.97,0.4,-0.9,-0.9,5.93,9.94,92891.2,726.91,0.0,0.0,0.0
32165,2,32165,46,9.44,-0.42,2.99,0.4,-0.9,-0.9,5.93,9.94,92885.58,727.1,0.0,0.0,0.0
32211,2,32211,46,9.44,-0.46,2.97,0.4,-0.9,-0.9,6.0,9.94,92896.42,726.82,0.0,0.0,0.0
32257,2,32257,46,9.35,-0.40,2.98,0.4,-0.9,-0.9,6.0,9.94,92893.17,727.40,0.0,0.0,0.0
32303,2,32303,46,9.43,-0.48,2.98,0.4,-0.9,-0.9,6.0,9.94,92894.28,727.1,0.0,0.0,0.0
32349,2,32349,46,9.41,-0.40,3.4,0.4,-0.9,-0.9,6.0,9.95,92893.21,727.1,0.0,0.0,0.0
32392,2,32392,43,9.39,-0.44,3.1,0.4,-0.8,-0.9,5.93,9.94,92895.28,727.30,0.0,0.0,0.0
32438,2,32438,46,9.41,-0.41,2.95,0.4,-0.9,-0.9,5.93,9.94,92895.35,727.60,0.0,0.0,0.0
32489,2,32489,51,9.42,-0.43,2.98,0.4,-0.9,-0.9,6.0,9.94,92896.46,727.30,0.0,0.0,0.0
32535,2,32535,46,9.40,-0.45,2.97,0.4,-0.9,-0.9,6.6,9.95,92893.17,727.11,0.0,0.0,0.0
32581,2,32581,46,9.45,-0.44,3.2,0.4,-0.9,-0.9,6.0,9.94,92893.17,727.11,0.0,0.0,0.0
32627,2,32627,46,9.44,-0.37,3.3,0.4,-0.9,-0.9,6.0,9.94,92889.87,726.82,0.0,0.0,0.0
32671,2,32671,44,9.40,-0.45,3.1,0.4,-0.10,-0.10,6.0,9.95,92896.42,726.92,0.0,0.0,0.0
32717,2,32717,46,9.44,-0.41,2.99,0.4,-0.9,-0.10,6.6,9.96,92895.35,727.11,0.0,0.0,0.0
32763,2,32763,46,9.42,-0.43,3.4,0.4,-0.9,-0.9,6.6,9.95,92895.32,726.82,0.0,0.0,0.0
32809,2,32809,46,9.40,-0.44,2.99,0.4,-0.9,-0.9,6.0,9.95,92894.24,726.82,0.0,0.0,0.0
32855,2,32855,46,9.45,-0.45,2.99,0.4,-0.9,-0.9,5.93,9.94,92889.87,726.53,0.0,0.0,0.0
32901,2,32901,46,9.40,-0.46,2.94,0.4,-0.9,-0.9,6.0,9.95,92893.13,726.34,0.0,0.0,0.0
32944,2,32944,43,9.43,-0.45,2.98,0.4,-0.9,-0.9,6.0,9.95,92894.20,727.40,0.0,0.0,0.0
32995,2,32995,51,9.41,-0.41,3.1,0.4,-0.9,-0.9,5.93,9.94,92895.32,727.40,0.0,0.0,0.0
33041,2,33041,46,9.42,-0.46,2.98,0.4,-0.9,-0.9,6.6,9.95,92897.53,726.72,0.0,0.0,0.0
33087,2,33087,46,9.42,-0.47,2.99,0.4,-0.9,-0.10,6.0,9.95,92895.35,727.11,0.0,0.0,0.0
33133,2,33133,46,9.40,-0.45,3.0,0.4,-0.9,-0.9,5.93,9.95,92890.98,727.1,0.0,0.0,0.0
33179,2,33179,46,9.46,-0.44,2.95,0.4,-0.9,-0.9,6.0,9.95,92885.54,727.11,0.0,0.0,0.0
33222,2,33222,43,9.40,-0.44,3.0,0.4,-0.9,-0.9,6.0,9.95,92888.76,726.53,0.0,0.0,0.0
33268,2,33268,46,9.48,-0.42,3.6,0.4,-0.9,-0.9,6.0,9.96,92890.95,726.62,0.0,0.0,0.0
33314,2,33314,46,9.45,-0.44,2.98,0.4,-0.9,-0.9,6.0,9.96,92894.20,726.53,0.0,0.0,0.0
33360,2,33360,46,9.43,-0.46,2.99,0.4,-0.9,-0.9,5.93,9.95,92896.39,726.82,0.0,0.0,0.0
33406,2,33406,46,9.45,-0.44,2.98,0.4,-0.9,-0.9,5.93,9.95,92894.24,727.1,0.0,0.0,0.0
33452,2,33452,46,9.43,-0.44,2.98,0.4,-0.9,-0.9,6.6,9.95,92887.69,727.31,0.0,0.0,0.0
33506,2,33506,54,9.45,-0.44,3.6,0.4,-0.9,-0.9,6.6,9.95,92888.80,727.50,0.0,0.0,0.0
33552,2,33552,46,9.45,-0.44,3.4,0.3,-0.8,-0.9,6.6,9.94,92889.87,727.79,0.0,0.0,0.0
33598,2,33598,46,9.37,-0.39,3.0,0.4,-0.9,-0.9,6.0,9.95,92890.98,726.82,0.0,0.0,0.0
33644,2,33644,46,9.43,-0.39,3.2,0.4,-0.9,-0.9,5.93,9.94,92890.98,727.50,0.0,0.0,0.0
33691,2,33691,47,9.35,-0.41,3.1,0.4,-0.9,-0.9,6.0,9.95,92884.43,726.91,0.0,0.0,0.0
33737,2,33737,46,9.38,-0.44,3.3,0.4,-0.9,-0.9,5.87,9.95,92895.32,727.11,0.0,0.0,0.0
33786,2,33786,49,9.44,-0.45,2.96,0.4,-0.9,-0.9,5.93,9.95,92886.61,726.91,0.0,0.0,0.0
33832,2,33832,46,9.41,-0.45,3.1,0.4,-0.9,-0.9,6.0,9.95,92898.61,726.62,0.0,0.0,0.0
33878,2,33878,46,9.42,-0.43,3.0,0.4,-0.9,-0.9,5.93,9.95,92893.13,726.24,0.0,0.0,0.0
33924,2,33924,46,9.43,-0.47,2.95,0.4,-0.9,-0.9,6.0,9.96,92894.20,726.72,0.0,0.0,0.0
33970,2,33970,46,9.36,-0.44,3.2,0.4,-0.9,-0.9,5.93,9.96,92896.42,726.53,0.0,0.0,0.0
34021,2,34021,51,9.46,-0.40,2.96,0.4,-0.9,-0.9,6.0,9.96,92893.17,726.91,0.0,0.0,0.0
34073,2,34073,52,9.50,-0.42,2.97,0.4,-0.9,-0.9,5.93,9.95,92885.54,727.1,0.0,0.0,0.0
34119,2,34119,46,9.48,-0.47,2.98,0.4,-0.9,-0.10,5.93,9.94,92885.54,726.72,0.0,0.0,0.0
34165,2,34165,46,9.44,-0.44,2.92,0.4,-0.9,-0.9,5.93,9.95,92893.17,727.11,0.0,0.0,0.0
34211,2,34211,46,9.39,-0.41,3.3,0.4,-0.9,-0.9,6.0,9.94,92888.80,727.2,0.0,0.0,0.0
34257,2,34257,46,9.38,-0.42,2.99,0.4,-0.9,-0.10,6.6,9.95,92895.32,727.50,0.0,0.0,0.0
34303,2,34303,46,9.38,-0.43,3.1,0.4,-0.9,-0.9,6.0,9.95,92888.76,727.11,0.0,0.0,0.0
34352,2,34352,49,9.44,-0.43,3.1,0.4,-0.9,-0.9,5.93,9.95,92889.83,727.2,0.0,0.0,0.0
34398,2,34398,46,9.40,-0.48,2.95,0.4,-0.9,-0.9,6.0,9.95,92896.42,726.92,0.0,0.0,0.0
34444,2,34444,46,9.48,-0.46,2.97,0.4,-0.9,-0.9,6.0,9.96,92898.57,727.40,0.0,0.0,0.0
34490,2,34490,46,9.43,-0.46,2.98,0.4,-0.9,-0.9,6.0,9.96,92892.6,727.11,0.0,0.0,0.0
34550,2,34550,60,9.43,-0.37,3.3,0.4,-0.9,-0.9,6.0,9.94,92893.17,726.91,0.0,0.0,0.0
34596,2,34596,46,9.44,-0.40,2.98,0.4,-0.9,-0.9,5.93,9.95,92890.98,726.91,0.0,0.0,0.0
34645,2,34645,49,9.58,-0.41,3.7,0.4,-0.9,-0.9,6.6,9.94,92888.80,727.50,0.0,0.0,0.0
34692,2,34692,47,9.49,-0.44,3.8,0.4,-0.8,-0.9,6.0,9.95,92889.87,727.89,0.0,0.0,0.0
34738,2,34738,46,9.45,-0.44,2.96,0.4,-0.9,-0.9,6.0,9.96,92892.6,726.82,0.0,0.0,0.0
34784,2,34784,46,9.42,-0.47,2.96,0.4,-0.8,-0.9,6.6,9.96,92888.76,727.50,0.0,0.0,0.0
34830,2,34830,46,9.36,-0.47,3.2,0.4,-0.9,-0.9,6.6,9.96,92887.69,726.53,0.0,0.0,0.0
34876,2,34876,46,9.44,-0.46,2.97,0.4,-0.9,-0.9,6.0,9.96,92895.32,727.2,0.0,0.0,0.0
34922,2,34922,46,9.40,-0.42,3.1,0.4,-0.8,-0.9,6.0,9.96,92894.24,726.72,0.0,0.0,0.0
34965,2,34965,43,9.50,-0.33,3.1,0.4,-0.8,-0.9,6.6,9.96,92896.39,727.21,0.0,0.0,0.0
35011,2,35011,46,9.48,-0.38,3.7,0.4,-0.9,-0.10,6.6,9.95,92889.87,727.31,0.0,0.0,0.0
35063,2,35063,52,9.46,-0.43,2.94,0.4,-0.9,-0.9,6.6,9.95,92896.42,727.21,0.0,0.0,0.0
35109,2,35109,46,9.48,-0.47,3.9,0.4,-0.9,-0.10,6.0,9.96,92888.80,727.2,0.0,0.0,0.0
35155,2,35155,46,9.43,-0.42,3.4,0.4,-0.9,-0.9,6.6,9.96,92889.83,727.2,0.0,0.0,0.0
35201,2,35201,46,9.42,-0.39,2.94,0.4,-0.9,-0.9,6.6,9.95,92890.95,727.60,0.0,0.0,0.0
35244,2,35244,43,9.41,-0.37,3.2,0.4,-0.9,-0.9,6.6,9.95,92886.61,727.21,0.0,0.0,0.0
35290,2,35290,46,9.49,-0.49,3.2,0.4,-0.9,-0.10,6.0,9.96,92896.39,726.62,0.0,0.0,0.0
35336,2,35336,46,9.41,-0.49,3.1,0.4,-0.8,-0.9,6.6,9.95,92893.13,727.21,0.0,0.0,0.0
35382,2,35382,46,9.44,-0.51,3.10,0.4,-0.8,-0.9,6.0,9.95,92895.32,726.82,0.0,0.0,0.0
35428,2,35428,46,9.49,-0.47,3.4,0.4,-0.9,-0.9,6.0,9.96,92897.50,727.21,0.0,0.0,0.0
35474,2,35474,46,9.42,-0.38,2.91,0.4,-0.9,-0.9,6.0,9.96,92896.39,726.82,0.0,0.0,0.0
35517,2,35517,43,9.45,-0.40,2.96,0.4,-0.9,-0.9,6.0,9.94,92893.17,727.30,0.0,0.0,0.0
35568,2,35568,51,9.49,-0.43,3.12,0.4,-0.9,-0.9,6.0,9.95,92887.73,727.30,0.0,0.0,0.0
35614,2,35614,46,9.42,-0.45,3.0,0.4,-0.9,-0.9,6.6,9.95,92893.13,726.91,0.0,0.0,0.0
35660,2,35660,46,9.47,-0.51,2.93,0.4,-0.9,-0.9,6.0,9.94,92890.95,727.50,0.0,0.0,0.0
35707,2,35707,47,9.40,-0.45,2.93,0.4,-0.9,-0.9,6.0,9.95,92894.24,726.33,0.0,0.0,0.0
35753,2,35753,46,9.44,-0.45,2.99,0.4,-0.10,-0.10,6.6,9.95,92894.28,727.69,0.0,0.0,0.0
35796,2,35796,43,9.43,-0.43,2.92,0.4,-0.9,-0.9,6.0,9.94,92894.24,727.11,0.0,0.0,0.0
35842,2,35842,46,9.36,-0.44,3.5,0.4,-0.9,-0.10,6.0,9.95,92897.50,726.62,0.0,0.0,0.0
35888,2,35888,46,9.39,-0.44,3.1,0.4,-0.9,-0.9,6.0,9.95,92893.13,727.11,0.0,0.0,0.0
35934,2,35934,46,9.39,-0.43,2.94,0.4,-0.9,-0.9,6.0,9.96,92894.20,727.21,0.0,0.0,0.0
35980,2,35980,46,9.44,-0.38,2.98,0.4,-0.9,-0.9,5.93,9.96,92890.95,726.82,0.0,0.0,0.0
36026,2,36026,46,9.37,-0.45,3.2,0.4,-0.9,-0.9,6.0,9.95,92889.87,726.72,0.0,0.0,0.0
36074,2,36074,48,9.41,-0.41,2.94,0.4,-0.9,-0.9,5.93,9.95,92899.68,727.1,0.0,0.0,0.0
36120,2,36120,46,9.60,-0.46,2.95,0.4,-0.9,-0.9,5.93,9.95,92899.68,726.53,0.0,0.0,0.0
36166,2,36166,46,9.37,-0.46,3.4,0.4,-0.9,-0.9,5.93,9.95,92892.6,727.21,0.0,0.0,0.0
36212,2,36212,46,9.56,-0.49,2.97,0.4,-0.9,-0.9,6.0,9.96,92888.76,727.2,0.0,0.0,0.0
36258,2,36258,46,9.38,-0.44,2.99,0.4,-0.9,-0.9,5.93,9.96,92887.69,727.41,0.0,0.0,0.0
36304,2,36304,46,9.31,-0.40,3.1,0.4,-0.9,-0.9,6.0,9.96,92896.42,727.1,0.0,0.0,0.0
36349,2,36349,45,9.46,-0.44,2.99,0.4,-0.9,-0.9,6.0,9.96,92895.32,727.2,0.0,0.0,0.0
36395,2,36395,46,9.40,-0.40,3.2,0.4,-0.8,-0.9,6.0,9.96,92890.95,727.21,0.0,0.0,0.0
36441,2,36441,46,9.51,-0.43,2.96,0.4,-0.9,-0.9,5.93,9.95,92894.20,726.73,0.0,0.0,0.0
36487,2,36487,46,9.43,-0.44,2.99,0.4,-0.9,-0.9,6.0,9.96,92884.39,726.92,0.0,0.0,0.0
36533,2,36533,46,9.48,-0.43,2.97,0.4,-0.9,-0.9,6.0,9.96,92882.21,727.31,0.0,0.0,0.0
36594,2,36594,61,9.37,-0.46,3.2,0.4,-0.9,-0.9,6.0,9.95,92886.65,727.11,0.0,0.0,0.0
36637,2,36637,43,9.42,-0.41,3.1,0.4,-0.9,-0.10,6.6,9.95,92896.42,727.1,0.0,0.0,0.0
36683,2,36683,46,9.30,-0.44,3.10,0.4,-0.9,-0.9,6.6,9.96,92893.17,726.82,0.0,0.0,0.0
36730,2,36730,47,9.54,-0.48,3.3,0.4,-0.8,-0.9,6.0,9.95,92886.61,726.43,0.0,0.0,0.0
36776,2,36776,46,9.44,-0.43,3.1,0.4,-0.8,-0.9,6.0,9.96,92889.87,726.63,0.0,0.0,0.0
36822,2,36822,46,9.43,-0.41,3.5,0.4,-0.9,-0.9,6.0,9.96,92889.83,727.31,0.0,0.0,0.0
36868,2,36868,46,9.44,-0.46,2.96,0.4,-0.9,-0.9,6.0,9.95,92890.95,727.41,0.0,0.0,0.0
36911,2,36911,43,9.38,-0.46,2.94,0.4,-0.9,-0.9,5.93,9.96,92898.57,727.21,0.0,0.0,0.0
36957,2,36957,46,9.48,-0.42,3.10,0.4,-0.9,-0.9,6.6,9.96,92896.39,727.21,0.0,0.0,0.0
37003,2,37003,46,9.44,-0.32,3.4,0.4,-0.9,-0.9,6.6,9.97,92895.28,726.63,0.0,0.0,0.0
37049,2,37049,46,9.42,-0.32,3.8,0.4,-0.9,-0.9,6.6,9.97,92888.72,726.73,0.0,0.0,0.0
37114,2,37114,65,9.41,-0.40,3.0,0.4,-0.9,-0.9,6.6,9.95,92887.69,727.30,0.0,0.0,0.0
37160,2,37160,46,9.42,-0.51,2.99,0.4,-0.9,-0.9,6.0,9.95,92897.53,726.62,0.0,0.0,0.0
37203,2,37203,43,9.45,-0.45,3.1,0.4,-0.8,-0.9,6.0,9.95,92894.24,727.11,0.0,0.0,0.0
37249,2,37249,46,9.43,-0.48,2.93,0.4,-0.9,-0.9,6.0,9.95,92887.69,727.21,0.0,0.0,0.0
37295,2,37295,46,9.48,-0.44,3.12,0.4,-0.8,-0.9,6.0,9.97,92888.76,726.73,0.0,0.0,0.0
37341,2,37341,46,9.63,-0.37,3.1,0.4,-0.9,-0.10,6.0,9.96,92888.76,726.63,0.0,0.0,0.0
37387,2,37387,46,9.36,-0.46,3.4,0.4,-0.9,-0.9,6.0,9.97,92887.65,727.12,0.0,0.0,0.0
37433,2,37433,46,9.47,-0.47,2.82,0.4,-0.9,-0.9,6.0,9.97,92890.91,726.73,0.0,0.0,0.0
37476,2,37476,43,9.44,-0.44,2.97,0.4,-0.9,-0.9,6.0,9.96,92890.91,727.2,0.0,0.0,0.0
37522,2,37522,46,9.48,-0.43,2.98,0.4,-0.9,-0.9,6.0,9.97,92890.91,727.21,0.0,0.0,0.0
37568,2,37568,46,9.43,-0.44,3.0,0.4,-0.8,-0.9,6.6,9.97,92893.9,727.21,0.0,0.0,0.0
37619,2,37619,51,9.37,-0.42,3.1,0.4,-0.9,-0.9,6.0,9.96,92893.13,727.31,0.0,0.0,0.0
37665,2,37665,46,9.48,-0.38,3.1,0.4,-0.9,-0.10,6.0,9.97,92891.98,727.12,0.0,0.0,0.0
37711,2,37711,46,9.44,-0.48,3.0,0.4,-0.9,-0.9,6.0,9.96,92894.20,726.43,0.0,0.0,0.0
37755,2,37755,44,9.41,-0.49,2.98,0.4,-0.9,-0.10,6.0,9.96,92898.57,727.1,0.0,0.0,0.0
37801,2,37801,46,9.44,-0.48,3.1,0.4,-0.9,-0.9,6.0,9.96,92887.65,726.53,0.0,0.0,0.0
37847,2,37847,46,9.39,-0.42,3.1,0.4,-0.8,-0.9,6.6,9.97,92898.53,726.73,0.0,0.0,0.0
37893,2,37893,46,9.43,-0.36,3.3,0.4,-0.9,-0.9,6.0,9.96,92900.71,727.21,0.0,0.0,0.0
37939,2,37939,46,9.39,-0.40,3.4,0.4,-0.9,-0.9,6.0,9.97,92896.39,727.12,0.0,0.0,0.0
37985,2,37985,46,9.36,-0.44,3.5,0.4,-0.9,-0.9,6.0,9.96,92894.13,726.53,0.0,0.0,0.0
38028,2,38028,43,9.38,-0.46,2.99,0.4,-0.9,-0.9,6.0,9.97,92895.24,727.61,0.0,0.0,0.0
38074,2,38074,46,9.45,-0.49,2.96,0.4,-0.10,-0.10,5.93,9.97,92895.28,726.83,0.0,0.0,0.0
38125,2,38125,51,9.35,-0.43,3.2,0.4,-0.9,-0.9,5.93,9.97,92890.91,726.53,0.0,0.0,0.0
38171,2,38171,46,9.40,-0.37,2.98,0.4,-0.9,-0.9,6.0,9.97,92895.28,726.82,0.0,0.0,0.0
38217,2,38217,46,9.46,-0.36,3.1,0.4,-0.9,-0.9,6.0,9.95,92893.9,726.82,0.0,0.0,0.0
38263,2,38263,46,9.44,-0.43,2.98,0.4,-0.9,-0.9,6.6,9.96,92896.35,726.92,0.0,0.0,0.0
38306,2,38306,43,9.46,-0.40,2.96,0.4,-0.9,-0.10,6.0,9.97,92897.46,727.12,0.0,0.0,0.0
38352,2,38352,46,9.43,-0.50,2.97,0.4,-0.9,-0.9,5.93,9.97,92895.28,727.12,0.0,0.0,0.0
38398,2,38398,46,9.39,-0.34,2.95,0.4,-0.9,-0.10,5.93,9.96,92890.91,726.83,0.0,0.0,0.0
38444,2,38444,46,9.45,-0.43,3.0,0.4,-0.9,-0.9,6.0,9.96,92891.98,726.82,0.0,0.0,0.0
38490,2,38490,46,9.45,-0.48,2.97,0.4,-0.9,-0.9,5.93,9.96,92898.53,726.92,0.0,0.0,0.0
38536,2,38536,46,9.45,-0.49,2.95,0.4,-0.10,-0.9,5.93,9.97,92897.50,727.1,0.0,0.0,0.0
38580,2,38580,44,9.41,-0.41,2.92,0.4,-0.9,-0.9,5.93,9.95,92893.9,727.70,0.0,0.0,0.0
38640,2,38640,60,9.46,-0.42,3.0,0.4,-0.9,-0.9,5.93,9.95,92896.42,726.62,0.0,0.0,0.0
38686,2,38686,46,9.40,-0.38,3.0,0.4,-0.9,-0.9,5.87,9.96,92890.98,726.52,0.0,0.0,0.0
38732,2,38732,46,9.40,-0.44,3.4,0.4,-0.9,-0.10,5.93,9.95,92900.75,727.50,0.0,0.0,0.0
38779,2,38779,47,9.49,-0.41,3.7,0.4,-0.9,-0.9,5.93,9.95,92892.6,726.63,0.0,0.0,0.0
38825,2,38825,46,9.37,-0.48,2.94,0.4,-0.9,-0.9,5.93,9.95,92894.16,726.73,0.0,0.0,0.0
38868,2,38868,43,9.42,-0.42,2.94,0.4,-0.9,-0.9,5.93,9.95,92892.2,727.12,0.0,0.0,0.0
38914,2,38914,46,9.40,-0.41,2.93,0.4,-0.9,-0.9,5.93,9.96,92896.35,726.63,0.0,0.0,0.0
38960,2,38960,46,9.45,-0.40,2.91,0.4,-0.9,-0.9,6.0,9.95,92897.46,727.31,0.0,0.0,0.0
39006,2,39006,46,9.47,-0.42,2.96,0.4,-0.9,-0.10,5.93,9.97,92890.91,727.31,0.0,0.0,0.0
39052,2,39052,46,9.35,-0.38,2.98,0.4,-0.9,-0.9,5.93,9.96,92894.20,726.53,0.0,0.0,0.0
39098,2,39098,46,9.45,-0.42,3.2,0.4,-0.9,-0.9,6.0,9.96,92900.71,727.31,0.0,0.0,0.0
39146,2,39146,48,9.41,-0.45,3.0,0.4,-0.9,-0.9,5.93,9.96,92893.13,726.82,0.0,0.0,0.0
39192,2,39192,46,9.46,-0.48,2.97,0.4,-0.9,-0.9,6.0,9.95,92892.6,727.11,0.0,0.0,0.0
39238,2,39238,46,9.41,-0.41,3.0,0.4,-0.9,-0.9,6.0,9.96,92890.95,727.41,0.0,0.0,0.0
39284,2,39284,46,9.35,-0.44,3.4,0.4,-0.9,-0.9,5.93,9.95,92890.95,726.63,0.0,0.0,0.0
39330,2,39330,46,9.45,-0.42,2.98,0.4,-0.9,-0.9,5.93,9.95,92886.57,726.23,0.0,0.0,0.0
39376,2,39376,46,9.46,-0.39,3.2,0.4,-0.9,-0.9,5.93,9.95,92900.71,727.11,0.0,0.0,0.0
39419,2,39419,43,9.46,-0.42,3.7,0.4,-0.9,-0.10,5.93,9.96,92895.32,727.31,0.0,0.0,0.0
39465,2,39465,46,9.39,-0.47,3.2,0.4,-0.9,-0.9,5.87,9.96,92896.42,726.63,0.0,0.0,0.0
39511,2,39511,46,9.39,-0.45,2.99,0.4,-0.8,-0.9,5.87,9.96,92888.76,727.41,0.0,0.0,0.0
39557,2,39557,46,9.39,-0.41,3.1,0.4,-0.9,-0.9,5.93,9.96,92890.95,726.82,0.0,0.0,0.0
39603,2,39603,46,9.39,-0.36,3.6,0.4,-0.9,-0.9,5.93,9.96,92892.6,726.73,0.0,0.0,0.0
39654,2,39654,51,9.43,-0.37,3.3,0.4,-0.9,-0.9,5.87,9.95,92897.46,726.82,0.0,0.0,0.0
39697,2,39697,43,9.42,-0.42,2.92,0.4,-0.9,-0.9,5.93,9.95,92888.76,727.12,0.0,0.0,0.0
39743,2,39743,46,9.39,-0.47,2.95,0.4,-0.9,-0.9,5.87,9.95,92892.6,726.14,0.0,0.0,0.0
39790,2,39790,47,9.46,-0.43,3.0,0.4,-0.9,-0.9,5.93,9.96,92886.61,727.11,0.0,0.0,0.0
39836,2,39836,46,9.43,-0.44,2.99,0.4,-0.9,-0.9,6.0,9.95,92887.65,726.82,0.0,0.0,0.0
39882,2,39882,46,9.41,-0.49,2.98,0.4,-0.9,-0.9,5.87,9.95,92890.98,727.30,0.0,0.0,0.0
39928,2,39928,46,9.37,-0.44,3.4,0.4,-0.9,-0.9,5.87,9.96,92897.46,726.24,0.0,0.0,0.0
39971,2,39971,43,9.48,-0.44,2.94,0.4,-0.9,-0.9,5.87,9.96,92890.95,726.82,0.0,0.0,0.0
40017,2,40017,46,9.36,-0.41,3.3,0.4,-0.9,-0.10,5.87,9.95,92892.6,726.92,0.0,0.0,0.0
40063,2,40063,46,9.36,-0.41,2.99,0.4,-0.9,-0.9,5.87,9.95,92892.6,727.11,0.0,0.0,0.0
40109,2,40109,46,9.48,-0.39,2.96,0.4,-0.9,-0.9,5.87,9.95,92892.2,726.53,0.0,0.0,0.0
40160,2,40160,51,9.42,-0.46,2.85,0.4,-0.10,-0.9,5.87,9.95,92897.53,727.21,0.0,0.0,0.0
40206,2,40206,46,9.37,-0.46,3.1,0.4,-0.9,-0.9,5.93,9.95,92890.95,726.92,0.0,0.0,0.0
40249,2,40249,43,9.44,-0.39,3.4,0.4,-0.9,-0.9,5.93,9.95,92892.6,727.40,0.0,0.0,0.0
40295,2,40295,46,9.51,-0.44,3.10,0.4,-0.9,-0.9,6.0,9.94,92899.68,726.82,0.0,0.0,0.0
40341,2,40341,46,9.41,-0.43,2.88,0.4,-0.10,-0.9,5.93,9.95,92894.24,726.62,0.0,0.0,0.0
40387,2,40387,46,9.44,-0.45,2.99,0.4,-0.9,-0.9,6.6,9.96,92897.50,727.11,0.0,0.0,0.0
40433,2,40433,46,9.42,-0.45,2.99,0.4,-0.9,-0.9,5.93,9.96,92889.83,727.30,0.0,0.0,0.0
40479,2,40479,46,9.46,-0.44,2.99,0.4,-0.9,-0.9,6.0,9.95,92896.39,726.92,0.0,0.0,0.0
40522,2,40522,43,9.42,-0.40,3.1,0.4,-0.8,-0.9,5.93,9.96,92888.76,726.92,0.0,0.0,0.0
40568,2,40568,46,9.49,-0.43,2.93,0.4,-0.9,-0.9,5.93,9.94,92894.20,727.1,0.0,0.0,0.0
40614,2,40614,46,9.45,-0.46,2.95,0.4,-0.9,-0.9,6.0,9.96,92894.20,726.92,0.0,0.0,0.0
40665,2,40665,51,9.39,-0.43,2.93,0.4,-0.9,-0.10,6.0,9.96,92895.35,727.40,0.0,0.0,0.0
40711,2,40711,46,9.44,-0.45,3.0,0.4,-0.9,-0.9,6.0,9.95,92889.87,727.1,0.0,0.0,0.0
40757,2,40757,46,9.37,-0.42,2.96,0.4,-0.9,-0.9,6.0,9.95,92886.61,726.92,0.0,0.0,0.0
40807,2,40807,50,9.45,-0.39,3.4,0.4,-0.9,-0.9,6.6,9.96,92896.39,727.2,0.0,0.0,0.0
40853,2,40853,46,9.35,-0.41,3.1,0.4,-0.9,-0.9,5.93,9.96,92886.57,727.31,0.0,0.0,0.0
40899,2,40899,46,9.37,-0.41,3.9,0.4,-0.9,-0.9,5.93,9.95,92897.46,726.62,0.0,0.0,0.0
40945,2,40945,46,9.42,-0.35,3.2,0.4,-0.8,-0.9,5.93,9.96,92895.28,727.21,0.0,0.0,0.0
40991,2,40991,46,9.49,-0.43,3.7,0.4,-0.9,-0.9,6.0,9.96,92887.69,727.31,0.0,0.0,0.0
41037,2,41037,46,9.37,-0.39,3.7,0.4,-0.9,-0.9,5.93,9.96,92888.76,726.34,0.0,0.0,0.0
41080,2,41080,43,9.38,-0.47,2.98,0.4,-0.9,-0.10,6.0,9.96,92893.9,727.30,0.0,0.0,0.0
41126,2,41126,46,9.48,-0.49,3.6,0.4,-0.9,-0.9,5.93,9.96,92892.2,726.53,0.0,0.0,0.0
41187,2,41187,61,9.42,-0.40,2.96,0.4,-0.9,-0.9,6.0,9.94,92893.17,726.72,0.0,0.0,0.0
41233,2,41233,46,9.41,-0.37,3.2,0.4,-0.9,-0.9,6.0,9.95,92893.21,726.43,0.0,0.0,0.0
41279,2,41279,46,9.49,-0.40,3.4,0.4,-0.8,-0.10,6.0,9.96,92895.32,726.92,0.0,0.0,0.0
41325,2,41325,46,9.47,-0.43,2.97,0.4,-0.9,-0.9,5.93,9.96,92897.50,727.40,0.0,0.0,0.0
41374,2,41374,49,9.40,-0.45,2.94,0.4,-0.9,-0.9,5.93,9.95,92888.76,726.53,0.0,0.0,0.0
41420,2,41420,46,9.48,-0.40,3.2,0.4,-0.9,-0.9,5.93,9.95,92890.95,726.92,0.0,0.0,0.0
41466,2,41466,46,9.42,-0.44,3.1,0.4,-0.9,-0.10,6.0,9.95,92899.68,727.11,0.0,0.0,0.0
41512,2,41512,46,9.36,-0.43,2.99,0.4,-0.9,-0.9,6.0,9.96,92889.83,726.43,0.0,0.0,0.0
41558,2,41558,46,9.38,-0.42,3.2,0.4,-0.9,-0.9,6.0,9.96,92886.57,726.92,0.0,0.0,0.0
41604,2,41604,46,9.43,-0.46,3.1,0.4,-0.9,-0.10,6.0,9.96,92894.20,726.43,0.0,0.0,0.0
41653,2,41653,49,9.42,-0.48,3.2,0.4,-0.9,-0.9,6.0,9.96,92896.39,727.11,0.0,0.0,0.0
41704,2,41704,51,9.47,-0.48,3.1,0.4,-0.9,-0.9,6.0,9.95,92894.24,727.40,0.0,0.0,0.0
41750,2,41750,46,9.45,-0.45,2.99,0.4,-0.9,-0.10,5.93,9.96,92894.24,727.21,0.0,0.0,0.0
41796,2,41796,46,9.28,-0.34,2.96,0.4,-0.9,-0.9,5.93,9.95,92890.91,727.2,0.0,0.0,0.0
41843,2,41843,47,9.64,-0.38,2.97,0.4,-0.9,-0.9,6.0,9.96,92886.57,726.83,0.0,0.0,0.0
41889,2,41889,46,9.27,-0.43,2.91,0.4,-0.10,-0.9,5.93,9.95,92894.20,726.92,0.0,0.0,0.0
41938,2,41938,49,9.36,-0.43,2.94,0.4,-0.9,-0.9,5.93,9.96,92892.2,727.12,0.0,0.0,0.0
41984,2,41984,46,9.41,-0.38,3.9,0.4,-0.8,-0.9,6.6,9.96,92889.83,726.63,0.0,0.0,0.0
42030,2,42030,46,9.48,-0.43,3.9,0.4,-0.9,-0.9,6.12,9.96,92893.13,726.83,0.0,0.0,0.0
42076,2,42076,46,9.47,-0.35,3.0,0.4,-0.9,-0.9,6.6,9.96,92893.9,726.72,0.0,0.0,0.0
42122,2,42122,46,9.50,-0.44,3.9,0.4,-0.10,-0.9,6.6,9.96,92889.83,726.92,0.0,0.0,0.0
42168,2,42168,46,9.55,-0.49,3.1,0.4,-0.9,-0.9,6.6,9.96,92884.35,727.41,0.0,0.0,0.0
42222,2,42222,54,9.37,-0.46,2.87,0.4,-0.9,-0.9,6.6,9.95,92888.76,727.50,0.0,0.0,0.0
42268,2,42268,46,9.35,-0.46,3.6,0.4,-0.9,-0.10,6.0,9.96,92894.20,726.43,0.0,0.0,0.0
42314,2,42314,46,9.34,-0.35,3.1,0.4,-0.8,-0.9,6.12,9.96,92894.20,727.2,0.0,0.0,0.0
42360,2,42360,46,9.45,-0.36,3.1,0.4,-0.9,-0.9,6.12,9.96,92889.83,727.21,0.0,0.0,0.0
42406,2,42406,46,9.55,-0.44,3.7,0.4,-0.9,-0.10,6.6,9.96,92890.91,726.82,0.0,0.0,0.0
42452,2,42452,46,9.40,-0.42,3.10,0.4,-0.9,-0.9,6.6,9.97,92894.16,726.73,0.0,0.0,0.0
42501,2,42501,49,9.52,-0.48,3.2,0.4,-0.9,-0.9,6.0,9.97,92892.2,727.51,0.0,0.0,0.0
42547,2,42547,46,9.32,-0.45,2.98,0.4,-0.9,-0.9,6.6,9.97,92891.98,726.73,0.0,0.0,0.0
42593,2,42593,46,9.50,-0.41,3.5,0.4,-0.9,-0.9,6.6,9.96,92889.79,727.12,0.0,0.0,0.0
42639,2,42639,46,9.35,-0.37,2.95,0.4,-0.9,-0.9,6.6,9.97,92890.91,726.34,0.0,0.0,0.0
42685,2,42685,46,9.36,-0.39,2.98,0.4,-0.10,-0.9,6.6,9.97,92894.16,727.41,0.0,0.0,0.0
42736,2,42736,51,9.46,-0.47,3.5,0.4,-0.9,-0.9,6.0,9.96,92895.28,726.83,0.0,0.0,0.0
42785,2,42785,49,9.38,-0.45,2.97,0.4,-0.9,-0.9,6.6,9.97,92892.2,727.21,0.0,0.0,0.0
42831,2,42831,46,9.50,-0.44,2.97,0.4,-0.9,-0.9,6.6,9.97,92891.98,726.92,0.0,0.0,0.0
42878,2,42878,47,9.37,-0.37,2.92,0.4,-0.9,-0.9,6.12,9.97,92897.46,727.2,0.0,0.0,0.0
42924,2,42924,46,9.47,-0.44,2.96,0.4,-0.9,-0.9,6.12,9.97,92898.50,727.31,0.0,0.0,0.0
42970,2,42970,46,9.44,-0.38,3.1,0.4,-0.8,-0.9,6.6,9.96,92891.98,727.31,0.0,0.0,0.0
43016,2,43016,46,9.47,-0.44,2.99,0.4,-0.9,-0.9,6.6,9.96,92887.61,727.22,0.0,0.0,0.0
43066,2,43066,50,9.49,-0.45,2.96,0.4,-0.9,-0.9,6.12,9.98,92894.16,726.83,0.0,0.0,0.0
43112,2,43112,46,9.30,-0.41,3.0,0.4,-0.9,-0.10,6.6,9.97,92897.42,727.12,0.0,0.0,0.0
43158,2,43158,46,9.41,-0.44,3.0,0.4,-0.8,-0.9,6.12,9.97,92886.50,727.41,0.0,0.0,0.0
43204,2,43204,46,9.37,-0.38,3.1,0.4,-0.9,-0.9,6.6,9.97,92891.98,727.22,0.0,0.0,0.0
43264,2,43264,60,9.48,-0.43,2.96,0.4,-0.10,-0.9,6.6,9.96,92895.28,727.2,0.0,0.0,0.0
43310,2,43310,46,9.36,-0.42,2.96,0.4,-0.9,-0.9,6.6,9.96,92891.98,726.82,0.0,0.0,0.0
43356,2,43356,46,9.53,-0.45,2.99,0.4,-0.9,-0.9,6.6,9.97,92894.16,727.2,0.0,0.0,0.0
43398,2,43398,42,9.47,-0.40,3.2,0.4,-0.9,-0.10,6.0,9.96,92885.46,727.2,0.0,0.0,0.0
43444,2,43444,46,9.42,-0.41,3.4,0.4,-0.9,-0.9,6.6,9.98,92895.24,727.41,0.0,0.0,0.0
43490,2,43490,46,9.43,-0.44,2.95,0.4,-0.8,-0.9,6.12,9.97,92889.79,727.2,0.0,0.0,0.0
43536,2,43536,46,9.36,-0.44,2.98,0.4,-0.9,-0.9,6.6,9.97,92897.42,727.31,0.0,0.0,0.0
43582,2,43582,46,9.47,-0.48,2.95,0.4,-0.9,-0.9,6.12,9.98,92899.60,726.34,0.0,0.0,0.0
43628,2,43628,46,9.37,-0.45,3.1,0.4,-0.8,-0.9,6.6,9.97,92891.98,726.83,0.0,0.0,0.0
43671,2,43671,43,9.48,-0.43,2.97,0.4,-0.9,-0.9,6.12,9.97,92891.98,726.63,0.0,0.0,0.0
43717,2,43717,46,9.42,-0.44,3.0,0.4,-0.9,-0.10,6.12,9.98,92895.24,727.12,0.0,0.0,0.0
43768,2,43768,51,9.38,-0.43,2.98,0.4,-0.9,-0.10,6.12,9.96,92891.98,726.92,0.0,0.0,0.0
43814,2,43814,46,9.38,-0.45,2.98,0.4,-0.9,-0.9,6.12,9.97,92890.87,727.12,0.0,0.0,0.0
43860,2,43860,46,9.43,-0.49,2.93,0.4,-0.9,-0.9,6.6,9.97,92893.9,726.54,0.0,0.0,0.0
43907,2,43907,47,9.35,-0.45,3.5,0.4,-0.8,-0.9,6.12,9.97,92890.91,727.2,0.0,0.0,0.0
43950,2,43950,43,9.47,-0.39,2.93,0.4,-0.9,-0.9,6.6,9.97,92893.5,726.83,0.0,0.0,0.0
43996,2,43996,46,9.46,-0.35,2.93,0.4,-0.9,-0.10,6.12,9.98,92888.68,726.73,0.0,0.0,0.0
44042,2,44042,46,9.41,-0.33,3.3,0.4,-0.9,-0.9,6.12,9.98,92887.61,727.12,0.0,0.0,0.0
44088,2,44088,46,9.43,-0.38,2.99,0.4,-0.9,-0.9,6.6,9.98,92886.50,726.93,0.0,0.0,0.0
44134,2,44134,46,9.42,-0.44,2.95,0.4,-0.9,-0.10,6.12,9.98,92888.68,727.80,0.0,0.0,0.0
44180,2,44180,46,9.41,-0.50,3.3,0.4,-0.9,-0.9,6.12,9.97,92894.16,726.92,0.0,0.0,0.0
44223,2,44223,43,9.40,-0.51,2.98,0.4,-0.9,-0.9,6.6,9.97,92891.98,727.22,0.0,0.0,0.0
44274,2,44274,51,9.50,-0.41,3.4,0.4,-0.9,-0.9,6.6,9.97,92891.94,726.92,0.0,0.0,0.0
44320,2,44320,46,9.46,-0.40,3.2,0.4,-0.9,-0.10,6.6,9.98,92888.68,727.31,0.0,0.0,0.0
44366,2,44366,46,9.44,-0.34,3.3,0.4,-0.9,-0.9,6.6,9.97,92894.16,726.92,0.0,0.0,0.0
44412,2,44412,46,9.40,-0.41,2.88,0.4,-0.9,-0.9,6.6,9.99,92889.75,726.83,0.0,0.0,0.0
44458,2,44458,46,9.41,-0.48,2.97,0.4,-0.9,-0.9,6.12,9.97,92892.2,726.43,0.0,0.0,0.0
44514,2,44514,56,9.46,-0.47,2.98,0.4,-0.9,-0.9,6.6,9.97,92890.91,727.22,0.0,0.0,0.0
44560,2,44560,46,9.42,-0.44,3.0,0.4,-0.8,-0.9,6.6,9.97,92894.16,727.22,0.0,0.0,0.0
44606,2,44606,46,9.47,-0.37,2.94,0.4,-0.9,-0.9,6.6,9.97,92894.13,727.12,0.0,0.0,0.0
44652,2,44652,46,9.39,-0.37,2.98,0.4,-0.9,-0.9,6.12,9.97,92889.79,727.12,0.0,0.0,0.0
44698,2,44698,46,9.45,-0.39,3.0,0.4,-0.9,-0.9,6.12,9.98,92893.5,727.12,0.0,0.0,0.0
44744,2,44744,46,9.37,-0.52,2.90,0.4,-0.9,-0.9,6.12,9.97,92890.87,727.2,0.0,0.0,0.0
44792,2,44792,48,9.53,-0.47,3.7,0.4,-0.9,-0.9,6.12,9.97,92894.16,727.61,0.0,0.0,0.0
44838,2,44838,46,9.43,-0.44,3.4,0.4,-0.8,-0.9,6.6,9.98,92887.61,727.2,0.0,0.0,0.0
44884,2,44884,46,9.42,-0.44,2.97,0.4,-0.9,-0.9,6.6,9.98,92891.94,726.73,0.0,0.0,0.0
44931,2,44931,47,9.49,-0.38,2.96,0.4,-0.9,-0.9,6.6,9.98,92893.5,726.92,0.0,0.0,0.0
44977,2,44977,46,9.44,-0.41,3.11,0.4,-0.9,-0.10,6.12,9.97,92895.20,727.3,0.0,0.0,0.0
45023,2,45023,46,9.38,-0.42,2.98,0.4,-0.9,-0.9,6.6,9.97,92897.42,726.83,0.0,0.0,0.0
45066,2,45066,43,9.41,-0.46,3.4,0.4,-0.9,-0.9,6.18,9.97,92891.94,726.73,0.0,0.0,0.0
45112,2,45112,46,9.35,-0.47,2.91,0.4,-0.9,-0.9,6.6,9.98,92890.87,726.83,0.0,0.0,0.0
45158,2,45158,46,9.48,-0.36,2.98,0.4,-0.9,-0.9,6.6,9.99,92899.57,726.54,0.0,0.0,0.0
45204,2,45204,46,9.45,-0.38,3.2,0.4,-0.9,-0.10,6.18,9.98,92894.13,727.32,0.0,0.0,0.0
45250,2,45250,46,9.45,-0.38,3.1,0.4,-0.9,-0.9,6.12,9.99,92888.64,727.51,0.0,0.0,0.0
45301,2,45301,51,9.38,-0.47,3.0,0.4,-0.9,-0.9,6.6,9.98,92890.87,726.73,0.0,0.0,0.0
45345,2,45345,44,9.48,-0.44,3.6,0.4,-0.9,-0.9,6.6,9.97,92896.31,727.22,0.0,0.0,0.0
45391,2,45391,46,9.48,-0.48,3.3,0.4,-0.8,-0.9,6.6,9.97,92890.87,727.12,0.0,0.0,0.0
45437,2,45437,46,9.47,-0.40,3.0,0.4,-0.9,-0.9,6.12,9.98,92890.83,727.2,0.0,0.0,0.0
45483,2,45483,46,9.48,-0.48,3.3,0.4,-0.9,-0.10,6.12,9.98,92893.1,726.83,0.0,0.0,0.0
45529,2,45529,46,9.39,-0.39,2.99,0.4,-0.9,-0.9,6.12,9.99,92895.20,727.31,0.0,0.0,0.0
45575,2,45575,46,9.43,-0.44,2.96,0.4,-0.9,-0.9,6.12,9.98,92893.1,726.83,0.0,0.0,0.0
45618,2,45618,43,9.38,-0.43,3.1,0.4,-0.9,-0.9,6.6,9.98,92887.57,726.63,0.0,0.0,0.0
45664,2,45664,46,9.44,-0.47,3.0,0.4,-0.9,-0.9,6.12,9.98,92893.1,727.31,0.0,0.0,0.0
45710,2,45710,46,9.47,-0.48,2.97,0.4,-0.9,-0.9,6.12,9.98,92900.64,726.63,0.0,0.0,0.0
45756,2,45756,46,9.44,-0.38,3.4,0.4,-0.9,-0.9,6.12,9.99,92899.57,726.73,0.0,0.0,0.0
45817,2,45817,61,9.44,-0.39,2.92,0.4,-0.9,-0.9,6.6,9.97,92889.79,726.43,0.0,0.0,0.0
45863,2,45863,46,9.41,-0.43,2.90,0.4,-0.9,-0.9,6.6,9.97,92890.87,727.2,0.0,0.0,0.0
45907,2,45907,44,9.47,-0.45,2.95,0.4,-0.9,-0.9,6.6,9.97,92890.87,727.31,0.0,0.0,0.0
45954,2,45954,47,9.36,-0.48,3.0,0.4,-0.9,-0.9,6.6,9.97,92893.5,726.73,0.0,0.0,0.0
46000,2,46000,46,9.48,-0.45,2.96,0.4,-0.9,-0.9,6.6,9.98,92898.46,726.54,0.0,0.0,0.0
46046,2,46046,46,9.44,-0.47,2.99,0.4,-0.9,-0.10,6.12,9.98,92893.1,727.12,0.0,0.0,0.0
46092,2,46092,46,9.52,-0.41,2.93,0.4,-0.9,-0.9,6.12,9.98,92890.83,726.15,0.0,0.0,0.0
46138,2,46138,46,9.47,-0.34,3.1,0.4,-0.9,-0.9,6.6,9.98,92890.83,727.12,0.0,0.0,0.0
46181,2,46181,43,9.41,-0.43,2.98,0.4,-0.9,-0.9,6.12,9.98,92893.5,726.83,0.0,0.0,0.0
46227,2,46227,46,9.42,-0.44,2.93,0.4,-0.9,-0.9,6.12,9.97,92894.13,726.83,0.0,0.0,0.0
46273,2,46273,46,9.39,-0.45,2.95,0.4,-0.9,-0.9,6.18,9.98,92898.46,726.83,0.0,0.0,0.0
46325,2,46325,52,9.47,-0.40,2.99,0.4,-0.9,-0.9,6.12,9.97,92896.31,726.63,0.0,0.0,0.0
46371,2,46371,46,9.49,-0.43,2.97,0.4,-0.9,-0.9,6.6,9.99,92894.9,726.92,0.0,0.0,0.0
46417,2,46417,46,9.43,-0.42,2.91,0.4,-0.9,-0.9,6.12,9.98,92890.87,727.31,0.0,0.0,0.0
46460,2,46460,43,9.42,-0.44,3.1,0.4,-0.9,-0.9,6.6,9.98,92890.83,726.64,0.0,0.0,0.0
46506,2,46506,46,9.42,-0.47,2.95,0.4,-0.8,-0.9,6.12,9.98,92897.34,727.41,0.0,0.0,0.0
46552,2,46552,46,9.41,-0.43,2.98,0.4,-0.9,-0.9,6.12,9.98,92890.79,726.93,0.0,0.0,0.0
46598,2,46598,46,9.46,-0.48,2.97,0.4,-0.9,-0.9,6.12,9.99,92894.9,726.93,0.0,0.0,0.0
46644,2,46644,46,9.36,-0.43,3.4,0.4,-0.9,-0.9,6.18,9.99,92892.97,726.73,0.0,0.0,0.0
46690,2,46690,46,9.45,-0.45,2.98,0.4,-0.9,-0.9,6.18,9.98,92891.94,726.73,0.0,0.0,0.0
46733,2,46733,43,9.44,-0.44,2.96,0.4,-0.9,-0.9,6.12,9.98,92895.20,727.42,0.0,0.0,0.0
46779,2,46779,46,9.43,-0.42,3.0,0.4,-0.8,-0.9,6.12,9.99,92891.90,727.12,0.0,0.0,0.0
46830,2,46830,51,9.40,-0.44,2.96,0.4,-0.9,-0.9,6.12,9.99,92894.13,726.54,0.0,0.0,0.0
46876,2,46876,46,9.39,-0.44,2.97,0.4,-0.9,-0.9,6.18,9.98,92889.75,726.83,0.0,0.0,0.0
46922,2,46922,46,9.41,-0.47,2.97,0.4,-0.9,-0.9,6.12,9.99,92889.71,726.83,0.0,0.0,0.0
46969,2,46969,47,9.39,-0.43,3.0,0.4,-0.9,-0.9,6.12,9.99,92890.87,727.12,0.0,0.0,0.0
47012,2,47012,43,9.40,-0.35,3.6,0.4,-0.9,-0.10,6.6,9.99,92893.1,726.64,0.0,0.0,0.0
47058,2,47058,46,9.43,-0.40,3.1,0.4,-0.9,-0.9,6.12,9.99,92895.16,727.2,0.0,0.0,0.0
47104,2,47104,46,9.43,-0.44,2.95,0.4,-0.9,-0.9,6.18,9.98,92886.42,727.2,0.0,0.0,0.0
47150,2,47150,46,9.53,-0.49,2.98,0.4,-0.9,-0.9,6.12,9.99,92888.60,726.54,0.0,0.0,0.0
47196,2,47196,46,9.48,-0.47,2.99,0.4,-0.9,-0.9,6.12,9.99,92897.34,726.84,0.0,0.0,0.0
47242,2,47242,46,9.43,-0.42,2.96,0.4,-0.9,-0.9,6.0,9.99,92894.13,726.83,0.0,0.0,0.0
47285,2,47285,43,9.39,-0.43,2.98,0.4,-0.9,-0.9,6.12,9.99,92894.9,726.93,0.0,0.0,0.0
47337,2,47337,52,9.42,-0.45,2.98,0.4,-0.9,-0.9,6.6,9.99,92889.75,726.83,0.0,0.0,0.0
47383,2,47383,46,9.42,-0.47,2.98,0.4,-0.9,-0.9,6.6,9.98,92890.83,727.51,0.0,0.0,0.0
47429,2,47429,46,9.39,-0.45,3.2,0.4,-0.9,-0.9,6.6,9.99,92890.79,727.51,0.0,0.0,0.0
47475,2,47475,46,9.36,-0.42,3.1,0.4,-0.9,-0.9,6.12,9.99,92892.97,727.51,0.0,0.0,0.0
47521,2,47521,46,9.44,-0.42,2.99,0.4,-0.9,-0.9,6.6,9.99,92885.39,726.83,0.0,0.0,0.0
47569,2,47569,48,9.47,-0.36,2.97,0.4,-0.9,-0.9,6.6,9.99,92889.71,727.41,0.0,0.0,0.0
47615,2,47615,46,9.48,-0.48,3.0,0.4,-0.9,-0.9,6.6,9.99,92894.9,726.64,0.0,0.0,0.0
47661,2,47661,46,9.38,-0.45,2.92,0.4,-0.9,-0.9,6.6,9.99,92889.71,726.74,0.0,0.0,0.0
47707,2,47707,46,9.41,-0.44,2.98,0.4,-0.9,-0.9,6.6,9.99,92891.86,727.61,0.0,0.0,0.0
47753,2,47753,46,9.40,-0.45,2.98,0.4,-0.9,-0.9,6.12,9.98,92892.97,726.94,0.0,0.0,0.0
47799,2,47799,46,9.41,-0.42,3.3,0.4,-0.9,-0.9,6.12,9.99,92892.97,726.74,0.0,0.0,0.0
47855,2,47855,56,9.48,-0.43,2.96,0.4,-0.9,-0.9,6.12,9.98,92893.1,727.12,0.0,0.0,0.0
47901,2,47901,46,9.46,-0.44,2.98,0.4,-0.9,-0.9,6.18,9.98,92889.75,727.51,0.0,0.0,0.0
47947,2,47947,46,9.45,-0.47,2.94,0.4,-0.9,-0.9,6.18,9.98,92889.71,726.73,0.0,0.0,0.0
47994,2,47994,47,9.44,-0.42,2.98,0.4,-0.8,-0.9,6.6,9.99,92891.90,727.2,0.0,0.0,0.0
48040,2,48040,46,9.40,-0.44,2.99,0.4,-0.9,-0.9,6.18,9.98,92897.34,726.34,0.0,0.0,0.0
48086,2,48086,46,9.44,-0.41,3.5,0.4,-0.9,-0.9,6.12,9.99,92893.1,726.73,0.0,0.0,0.0
48129,2,48129,43,9.42,-0.44,3.0,0.4,-0.8,-0.9,6.12,9.98,92890.83,727.12,0.0,0.0,0.0
48175,2,48175,46,9.38,-0.44,3.2,0.4,-0.9,-0.9,6.12,9.98,92897.38,726.93,0.0,0.0,0.0
48221,2,48221,46,9.44,-0.41,3.3,0.4,-0.9,-0.9,6.12,9.99,92895.20,726.83,0.0,0.0,0.0
48267,2,48267,46,9.45,-0.43,2.98,0.4,-0.9,-0.9,6.12,9.99,92894.9,727.3,0.0,0.0,0.0
48313,2,48313,46,9.40,-0.42,3.2,0.4,-0.9,-0.9,6.12,9.99,92883.20,727.32,0.0,0.0,0.0
48365,2,48365,52,9.42,-0.42,3.1,0.4,-0.9,-0.9,6.12,9.98,92888.68,727.12,0.0,0.0,0.0
48408,2,48408,43,9.43,-0.46,3.3,0.4,-0.9,-0.9,6.12,9.98,92898.46,726.73,0.0,0.0,0.0
48454,2,48454,46,9.41,-0.44,3.1,0.4,-0.9,-0.9,6.6,9.99,92890.83,727.3,0.0,0.0,0.0
48500,2,48500,46,9.44,-0.41,2.99,0.4,-0.9,-0.9,6.0,9.99,92890.79,727.22,0.0,0.0,0.0
48546,2,48546,46,9.42,-0.44,3.1,0.4,-0.9,-0.10,6.6,9.99,92887.53,727.13,0.0,0.0,0.0
48592,2,48592,46,9.44,-0.46,2.95,0.4,-0.9,-0.9,6.6,9.99,92894.9,726.74,0.0,0.0,0.0
48638,2,48638,46,9.48,-0.41,2.96,0.4,-0.9,-0.9,6.6,9.99,92893.1,727.3,0.0,0.0,0.0
48681,2,48681,43,9.40,-0.44,2.95,0.4,-0.9,-0.10,6.6,9.99,92896.23,726.93,0.0,0.0,0.0
48727,2,48727,46,9.43,-0.38,3.9,0.4,-0.9,-0.9,6.12,9.99,92890.83,727.3,0.0,0.0,0.0
48773,2,48773,46,9.43,-0.42,2.99,0.4,-0.9,-0.9,6.6,10.0,92888.60,726.94,0.0,0.0,0.0
48819,2,48819,46,9.44,-0.40,3.5,0.4,-0.9,-0.9,6.6,9.99,92888.60,726.64,0.0,0.0,0.0
48870,2,48870,51,9.45,-0.45,2.98,0.4,-0.9,-0.9,6.12,9.99,92887.50,726.44,0.0,0.0,0.0
48916,2,48916,46,9.45,-0.44,3.1,0.4,-0.9,-0.9,6.12,9.99,92896.27,726.93,0.0,0.0,0.0
48959,2,48959,43,9.39,-0.44,2.92,0.4,-0.9,-0.10,6.6,9.99,92897.38,726.74,0.0,0.0,0.0
49006,2,49006,47,9.39,-0.43,3.1,0.4,-0.9,-0.9,6.6,9.99,92892.97,727.42,0.0,0.0,0.0
49052,2,49052,46,9.37,-0.46,3.1,0.4,-0.9,-0.10,6.0,9.99,92899.49,726.45,0.0,0.0,0.0
49098,2,49098,46,9.44,-0.38,2.99,0.4,-0.9,-0.9,6.0,9.99,92890.75,726.45,0.0,0.0,0.0
49144,2,49144,46,9.43,-0.40,3.1,0.4,-0.9,-0.9,6.6,10.0,92892.97,726.84,0.0,0.0,0.0
49190,2,49190,46,9.37,-0.44,3.1,0.4,-0.8,-0.9,6.6,9.99,92892.97,727.13,0.0,0.0,0.0
49233,2,49233,43,9.48,-0.49,2.91,0.4,-0.9,-0.9,6.0,9.99,92890.79,726.74,0.0,0.0,0.0
49279,2,49279,46,9.42,-0.44,3.1,0.4,-0.9,-0.10,6.0,10.0,92892.97,727.52,0.0,0.0,0.0
49325,2,49325,46,9.42,-0.42,2.91,0.4,-0.9,-0.9,6.0,10.0,92890.75,726.64,0.0,0.0,0.0
49376,2,49376,51,9.41,-0.46,2.99,0.4,-0.9,-0.9,6.6,9.99,92891.90,726.64,0.0,0.0,0.0
49422,2,49422,46,9.40,-0.44,2.94,0.4,-0.9,-0.9,6.0,9.99,92897.34,727.3,0.0,0.0,0.0
49468,2,49468,46,9.42,-0.41,3.1,0.4,-0.9,-0.9,6.12,9.99,92898.38,726.74,0.0,0.0,0.0
49511,2,49511,43,9.44,-0.47,2.95,0.4,-0.9,-0.10,6.0,9.99,92895.12,726.45,0.0,0.0,0.0
49557,2,49557,46,9.41,-0.45,3.0,0.4,-0.9,-0.9,6.6,9.99,92891.86,726.74,0.0,0.0,0.0
49603,2,49603,46,9.41,-0.44,2.98,0.4,-0.9,-0.9,6.0,10.1,92895.12,726.64,0.0,0.0,0.0
49649,2,49649,46,9.37,-0.38,2.96,0.4,-0.9,-0.9,6.6,10.0,92886.38,726.94,0.0,0.0,0.0
49695,2,49695,46,9.44,-0.46,2.99,0.4,-0.9,-0.9,6.12,9.99,92898.38,726.84,0.0,0.0,0.0
49741,2,49741,46,9.37,-0.44,2.99,0.4,-0.9,-0.9,6.0,10.0,92900.52,727.3,0.0,0.0,0.0
49790,2,49790,49,9.46,-0.47,2.94,0.4,-0.9,-0.9,6.6,10.1,92899.45,727.3,0.0,0.0,0.0
49836,2,49836,46,9.39,-0.45,2.91,0.4,-0.9,-0.10,6.6,10.0,92895.8,727.3,0.0,0.0,0.0
49897,2,49897,61,9.38,-0.45,2.93,0.4,-0.9,-0.9,6.6,9.99,92896.27,726.83,0.0,0.0,0.0
49943,2,49943,46,9.42,-0.40,3.2,0.4,-0.9,-0.9,6.6,9.99,92892.97,725.96,0.0,0.0,0.0
49989,2,49989,46,9.36,-0.44,3.2,0.4,-0.9,-0.9,6.6,9.99,92899.49,726.64,0.0,0.0,0.0
50036,2,50036,47,9.41,-0.41,3.4,0.4,-0.9,-0.9,6.12,9.99,92896.23,727.42,0.0,0.0,0.0
50079,2,50079,43,9.36,-0.44,3.2,0.4,-0.9,-0.9,6.6,9.99,92894.5,727.13,0.0,0.0,0.0
50125,2,50125,46,9.47,-0.43,2.97,0.4,-0.9,-0.9,6.6,10.0,92889.67,727.23,0.0,0.0,0.0
50171,2,50171,46,9.45,-0.44,2.99,0.4,-0.9,-0.10,6.0,10.0,92899.45,727.13,0.0,0.0,0.0
50217,2,50217,46,9.45,-0.44,3.4,0.4,-0.9,-0.9,6.6,9.99,92887.50,727.23,0.0,0.0,0.0
50263,2,50263,46,9.46,-0.44,2.94,0.4,-0.9,-0.9,6.6,10.0,92892.93,727.42,0.0,0.0,0.0
50309,2,50309,46,9.44,-0.50,2.95,0.4,-0.10,-0.10,6.6,10.0,92897.26,726.74,0.0,0.0,0.0
50352,2,50352,43,9.46,-0.47,3.5,0.4,-0.9,-0.9,6.0,10.0,92896.19,727.23,0.0,0.0,0.0
50404,2,50404,52,9.43,-0.40,3.0,0.4,-0.9,-0.9,6.6,10.0,92891.86,727.23,0.0,0.0,0.0
50450,2,50450,46,9.38,-0.44,3.3,0.4,-0.9,-0.10,6.6,10.1,92894.5,727.13,0.0,0.0,0.0
50496,2,50496,46,9.41,-0.40,3.1,0.4,-0.9,-0.9,6.12,9.99,92890.75,727.52,0.0,0.0,0.0
50542,2,50542,46,9.48,-0.40,2.99,0.4,-0.9,-0.9,6.6,10.0,92890.75,727.42,0.0,0.0,0.0
50588,2,50588,46,9.38,-0.45,3.1,0.4,-0.9,-0.10,6.0,10.0,92890.75,726.94,0.0,0.0,0.0
50637,2,50637,49,9.46,-0.47,2.98,0.4,-0.9,-0.9,6.12,9.99,92897.30,726.74,0.0,0.0,0.0
50683,2,50683,46,9.47,-0.43,3.4,0.4,-0.9,-0.9,6.6,10.0,92887.46,727.32,0.0,0.0,0.0
50729,2,50729,46,9.45,-0.48,3.4,0.4,-0.9,-0.9,6.6,9.99,92891.86,726.84,0.0,0.0,0.0
50775,2,50775,46,9.43,-0.45,2.96,0.4,-0.9,-0.9,6.6,9.99,92890.75,727.23,0.0,0.0,0.0
50821,2,50821,46,9.46,-0.38,3.2,0.4,-0.9,-0.10,6.12,10.0,92884.24,726.64,0.0,0.0,0.0
50867,2,50867,46,9.42,-0.43,2.99,0.4,-0.9,-0.9,6.6,9.99,92892.93,727.13,0.0,0.0,0.0
50921,2,50921,54,9.48,-0.42,2.96,0.4,-0.9,-0.9,6.6,10.0,92894.5,727.32,0.0,0.0,0.0
50967,2,50967,46,9.46,-0.41,3.6,0.4,-0.9,-0.9,6.6,9.99,92895.12,727.3,0.0,0.0,0.0
51013,2,51013,46,9.42,-0.46,2.98,0.4,-0.9,-0.9,6.0,9.99,92888.60,727.33,0.0,0.0,0.0
51060,2,51060,47,9.42,-0.42,3.1,0.4,-0.9,-0.9,6.6,9.99,92889.67,726.84,0.0,0.0,0.0
51106,2,51106,46,9.43,-0.46,2.98,0.4,-0.9,-0.9,6.12,9.99,92887.50,726.74,0.0,0.0,0.0
51152,2,51152,46,9.44,-0.45,2.99,0.4,-0.9,-0.9,6.6,10.0,92889.64,726.35,0.0,0.0,0.0
51201,2,51201,49,9.39,-0.44,3.2,0.4,-0.9,-0.9,6.12,10.0,92888.60,726.45,0.0,0.0,0.0
51247,2,51247,46,9.42,-0.44,3.3,0.4,-0.9,-0.9,6.6,10.0,92886.38,726.84,0.0,0.0,0.0
51293,2,51293,46,9.42,-0.44,2.97,0.4,-0.9,-0.9,6.6,10.0,92890.79,726.94,0.0,0.0,0.0
51339,2,51339,46,9.44,-0.37,3.0,0.4,-0.9,-0.10,6.12,10.0,92890.75,727.33,0.0,0.0,0.0
51385,2,51385,46,9.42,-0.44,2.96,0.4,-0.9,-0.10,6.6,10.0,92899.49,726.64,0.0,0.0,0.0
51436,2,51436,51,9.42,-0.43,2.98,0.4,-0.9,-0.9,6.6,9.99,92895.16,726.84,0.0,0.0,0.0
51485,2,51485,49,9.40,-0.43,3.4,0.4,-0.9,-0.9,6.6,10.0,92895.12,726.74,0.0,0.0,0.0
51531,2,51531,46,9.42,-0.48,3.1,0.4,-0.9,-0.9,6.12,9.99,92890.75,727.13,0.0,0.0,0.0
51577,2,51577,46,9.43,-0.41,3.1,0.4,-0.9,-0.9,6.12,10.0,92894.0,726.94,0.0,0.0,0.0
51623,2,51623,46,9.48,-0.46,2.97,0.4,-0.9,-0.10,6.12,10.0,92895.12,726.94,0.0,0.0,0.0
51669,2,51669,46,9.37,-0.41,3.1,0.4,-0.9,-0.9,6.6,10.0,92897.30,726.94,0.0,0.0,0.0
51715,2,51715,46,9.47,-0.42,2.94,0.4,-0.9,-0.9,6.6,10.0,92894.0,727.91,0.0,0.0,0.0
51764,2,51764,49,9.42,-0.40,3.5,0.4,-0.9,-0.9,6.6,9.99,92890.75,727.3,0.0,0.0,0.0
51810,2,51810,46,9.46,-0.46,3.5,0.4,-0.9,-0.9,6.6,10.0,92892.93,727.3,0.0,0.0,0.0
51856,2,51856,46,9.40,-0.46,2.99,0.4,-0.9,-0.9,6.6,10.0,92890.75,726.94,0.0,0.0,0.0
51902,2,51902,46,9.44,-0.41,3.3,0.4,-0.9,-0.9,6.12,10.0,92889.64,726.94,0.0,0.0,0.0
51953,2,51953,51,9.41,-0.42,3.1,0.4,-0.9,-0.9,6.12,10.0,92891.86,727.3,0.0,0.0,0.0
51999,2,51999,46,9.47,-0.48,2.93,0.4,-0.9,-0.9,6.12,10.0,92891.86,727.42,0.0,0.0,0.0
52045,2,52045,46,9.46,-0.44,2.98,0.4,-0.9,-0.9,6.6,10.1,92892.97,727.22,0.0,0.0,0.0
52103,2,52103,58,9.42,-0.45,2.95,0.4,-0.9,-0.9,6.6,9.99,92890.83,726.83,0.0,0.0,0.0
52149,2,52149,46,9.42,-0.38,3.2,0.4,-0.9,-0.9,6.6,9.99,92889.67,726.64,0.0,0.0,0.0
52195,2,52195,46,9.42,-0.43,2.98,0.4,-0.9,-0.9,6.12,9.99,92896.19,726.84,0.0,0.0,0.0
52241,2,52241,46,9.49,-0.40,3.3,0.4,-0.9,-0.9,6.6,10.0,92887.50,727.32,0.0,0.0,0.0
52287,2,52287,46,9.48,-0.45,3.1,0.4,-0.9,-0.9,6.6,10.0,92890.71,726.16,0.0,0.0,0.0
52333,2,52333,46,9.44,-0.46,2.97,0.4,-0.9,-0.9,6.12,10.0,92886.38,727.3,0.0,0.0,0.0
52376,2,52376,43,9.40,-0.43,3.3,0.4,-0.9,-0.10,6.6,10.0,92895.12,727.42,0.0,0.0,0.0
52422,2,52422,46,9.42,-0.45,2.98,0.4,-0.9,-0.10,6.6,10.0,92900.52,726.55,0.0,0.0,0.0
52481,2,52481,59,9.44,-0.44,3.0,0.4,-0.9,-0.10,6.6,9.99,92885.31,727.3,0.0,0.0,0.0
52527,2,52527,46,9.37,-0.44,3.0,0.4,-0.9,-0.9,6.6,10.0,92895.12,726.64,0.0,0.0,0.0
52573,2,52573,46,9.47,-0.44,3.2,0.4,-0.9,-0.10,6.6,10.0,92894.5,727.33,0.0,0.0,0.0
52619,2,52619,46,9.41,-0.44,2.95,0.4,-0.9,-0.10,6.12,9.99,92889.67,726.84,0.0,0.0,0.0
52662,2,52662,43,9.42,-0.46,2.96,0.4,-0.9,-0.10,6.12,10.0,92887.50,727.23,0.0,0.0,0.0
52708,2,52708,46,9.47,-0.43,3.0,0.4,-0.9,-0.9,6.12,10.0,92891.82,727.13,0.0,0.0,0.0
52754,2,52754,46,9.43,-0.46,2.99,0.4,-0.9,-0.9,6.6,10.0,92892.89,727.72,0.0,0.0,0.0
52800,2,52800,46,9.47,-0.44,3.0,0.4,-0.9,-0.9,6.6,10.0,92891.82,727.3,0.0,0.0,0.0
52846,2,52846,46,9.43,-0.45,2.97,0.4,-0.9,-0.9,6.6,10.0,92894.0,726.94,0.0,0.0,0.0
52892,2,52892,46,9.43,-0.47,3.0,0.4,-0.9,-0.10,6.6,10.0,92899.49,727.3,0.0,0.0,0.0
52935,2,52935,43,9.43,-0.46,2.97,0.4,-0.9,-0.9,6.6,10.0,92891.82,726.45,0.0,0.0,0.0
52988,2,52988,53,9.44,-0.44,2.97,0.4,-0.9,-0.9,6.12,10.0,92890.75,727.3,0.0,0.0,0.0
53034,2,53034,46,9.43,-0.42,2.97,0.4,-0.9,-0.9,6.12,10.1,92895.12,726.74,0.0,0.0,0.0
53080,2,53080,46,9.46,-0.45,2.96,0.4,-0.9,-0.9,6.6,10.0,92894.0,727.42,0.0,0.0,0.0
53127,2,53127,47,9.46,-0.46,2.95,0.4,-0.9,-0.9,6.12,10.0,92888.57,726.64,0.0,0.0,0.0
53173,2,53173,46,9.47,-0.43,3.7,0.4,-0.9,-0.9,6.12,10.0,92890.75,727.23,0.0,0.0,0.0
53216,2,53216,43,9.45,-0.45,2.98,0.4,-0.9,-0.9,6.6,10.0,92889.64,726.84,0.0,0.0,0.0
53262,2,53262,46,9.44,-0.38,3.5,0.4,-0.9,-0.9,6.12,10.0,92892.89,726.45,0.0,0.0,0.0
53308,2,53308,46,9.49,-0.39,3.0,0.4,-0.9,-0.9,6.6,10.0,92891.82,727.23,0.0,0.0,0.0
53354,2,53354,46,9.41,-0.44,2.95,0.4,-0.9,-0.10,6.6,10.0,92891.78,726.55,0.0,0.0,0.0
53400,2,53400,46,9.41,-0.45,3.2,0.4,-0.9,-0.9,6.6,10.1,92890.75,727.62,0.0,0.0,0.0
53446,2,53446,46,9.44,-0.39,3.1,0.4,-0.9,-0.9,6.12,10.1,92890.75,726.74,0.0,0.0,0.0
53494,2,53494,48,9.42,-0.41,2.99,0.4,-0.9,-0.9,6.12,10.1,92889.67,726.84,0.0,0.0,0.0
53540,2,53540,46,9.42,-0.42,3.0,0.4,-0.9,-0.10,6.12,10.1,92887.46,726.94,0.0,0.0,0.0
53586,2,53586,46,9.42,-0.44,3.1,0.4,-0.9,-0.9,6.12,10.0,92890.71,726.74,0.0,0.0,0.0
53632,2,53632,46,9.44,-0.45,3.0,0.4,-0.9,-0.9,6.12,10.1,92897.26,727.33,0.0,0.0,0.0
53678,2,53678,46,9.44,-0.42,2.96,0.4,-0.9,-0.10,6.18,10.1,92890.71,727.33,0.0,0.0,0.0
53724,2,53724,46,9.43,-0.44,3.1,0.4,-0.9,-0.9,6.12,10.0,92895.8,726.55,0.0,0.0,0.0
53767,2,53767,43,9.38,-0.43,3.4,0.4,-0.9,-0.9,6.12,10.0,92895.8,727.13,0.0,0.0,0.0
53813,2,53813,46,9.40,-0.46,2.99,0.4,-0.9,-0.9,6.18,10.1,92896.15,727.33,0.0,0.0,0.0
53859,2,53859,46,9.42,-0.44,2.98,0.4,-0.9,-0.9,6.12,10.1,92896.15,727.13,0.0,0.0,0.0
53905,2,53905,46,9.44,-0.40,3.3,0.4,-0.9,-0.9,6.12,10.1,92890.71,728.1,0.0,0.0,0.0
53951,2,53951,46,9.46,-0.42,2.99,0.4,-0.9,-0.10,6.12,10.1,92889.64,727.23,0.0,0.0,0.0
54002,2,54002,51,9.44,-0.41,3.1,0.4,-0.9,-0.9,6.6,10.0,92886.38,726.74,0.0,0.0,0.0
54045,2,54045,43,9.43,-0.44,3.0,0.4,-0.9,-0.9,6.18,10.1,92892.93,726.64,0.0,0.0,0.0
54091,2,54091,46,9.43,-0.43,3.1,0.4,-0.9,-0.9,6.25,10.1,92895.8,726.94,0.0,0.0,0.0
54138,2,54138,47,9.46,-0.47,3.0,0.4,-0.9,-0.10,6.18,10.1,92890.67,727.4,0.0,0.0,0.0
54184,2,54184,46,9.36,-0.39,2.96,0.4,-0.9,-0.10,6.25,10.1,92894.0,726.84,0.0,0.0,0.0
54230,2,54230,46,9.44,-0.44,3.3,0.4,-0.9,-0.9,6.18,10.1,92891.78,726.65,0.0,0.0,0.0
54276,2,54276,46,9.43,-0.44,2.99,0.4,-0.9,-0.9,6.18,10.1,92891.82,726.84,0.0,0.0,0.0
54320,2,54320,44,9.52,-0.46,2.98,0.4,-0.9,-0.9,6.6,10.0,92896.19,727.33,0.0,0.0,0.0
54366,2,54366,46,9.49,-0.46,3.2,0.4,-0.9,-0.9,6.18,10.1,92890.71,726.26,0.0,0.0,0.0
54412,2,54412,46,9.47,-0.41,3.4,0.4,-0.8,-0.9,6.18,10.1,92896.15,727.43,0.0,0.0,0.0
54458,2,54458,46,9.35,-0.40,2.90,0.4,-0.9,-0.9,6.18,10.2,92890.71,726.65,0.0,0.0,0.0
54519,2,54519,61,9.36,-0.39,2.93,0.4,-0.9,-0.9,6.18,10.0,92895.8,726.35,0.0,0.0,0.0
54565,2,54565,46,9.48,-0.45,2.97,0.4,-0.10,-0.9,6.18,10.0,92895.12,726.84,0.0,0.0,0.0
54608,2,54608,43,9.43,-0.48,2.92,0.4,-0.9,-0.9,6.18,10.0,92892.89,726.94,0.0,0.0,0.0
54654,2,54654,46,9.38,-0.42,2.98,0.4,-0.9,-0.9,6.12,10.0,92892.89,726.84,0.0,0.0,0.0
54700,2,54700,46,9.46,-0.45,2.93,0.4,-0.9,-0.9,6.18,10.1,92886.34,726.94,0.0,0.0,0.0
54746,2,54746,46,9.34,-0.40,2.98,0.4,-0.9,-0.9,6.18,10.1,92890.71,727.23,0.0,0.0,0.0
54792,2,54792,46,9.47,-0.39,3.1,0.4,-0.9,-0.9,6.18,10.2,92887.41,726.65,0.0,0.0,0.0
54838,2,54838,46,9.37,-0.48,2.88,0.4,-0.10,-0.9,6.18,10.1,92892.89,726.84,0.0,0.0,0.0
54881,2,54881,43,9.42,-0.42,2.88,0.4,-0.9,-0.9,6.18,10.1,92887.41,727.14,0.0,0.0,0.0
54927,2,54927,46,9.44,-0.45,2.99,0.4,-0.9,-0.9,6.18,10.2,92896.15,727.4,0.0,0.0,0.0
54973,2,54973,46,9.40,-0.38,3.2,0.4,-0.9,-0.9,6.18,10.2,92891.78,726.84,0.0,0.0,0.0
55024,2,55024,51,9.47,-0.42,3.2,0.4,-0.9,-0.9,6.18,10.1,92895.8,727.33,0.0,0.0,0.0
55070,2,55070,46,9.45,-0.44,2.96,0.4,-0.9,-0.9,6.12,10.1,92887.46,726.64,0.0,0.0,0.0
55116,2,55116,46,9.44,-0.44,3.0,0.4,-0.9,-0.9,6.18,10.1,92891.82,726.35,0.0,0.0,0.0
55160,2,55160,44,9.39,-0.45,2.91,0.4,-0.9,-0.10,6.12,10.1,92891.82,726.45,0.0,0.0,0.0
55206,2,55206,46,9.44,-0.42,3.1,0.4,-0.9,-0.9,6.12,10.0,92901.64,726.74,0.0,0.0,0.0
55252,2,55252,46,9.48,-0.44,2.98,0.4,-0.9,-0.9,6.12,10.2,92889.64,726.94,0.0,0.0,0.0
55298,2,55298,46,9.37,-0.44,3.1,0.4,-0.9,-0.9,6.18,10.1,92892.89,727.14,0.0,0.0,0.0
55344,2,55344,46,9.50,-0.44,2.96,0.4,-0.9,-0.9,6.18,10.1,92894.0,726.55,0.0,0.0,0.0
55390,2,55390,46,9.25,-0.42,2.97,0.4,-0.8,-0.9,6.12,10.1,92889.64,726.74,0.0,0.0,0.0
55433,2,55433,43,9.48,-0.49,2.92,0.4,-0.9,-0.9,6.12,10.0,92892.89,726.55,0.0,0.0,0.0
55479,2,55479,46,9.39,-0.44,3.5,0.4,-0.9,-0.9,6.18,10.1,92892.89,727.23,0.0,0.0,0.0
55530,2,55530,51,9.40,-0.42,3.1,0.4,-0.9,-0.9,6.12,10.1,92890.75,726.74,0.0,0.0,0.0
55576,2,55576,46,9.42,-0.41,3.3,0.4,-0.9,-0.9,6.18,10.0,92896.15,726.74,0.0,0.0,0.0
55622,2,55622,46,9.41,-0.47,3.1,0.4,-0.9,-0.9,6.18,10.1,92895.8,727.62,0.0,0.0,0.0
55668,2,55668,46,9.46,-0.44,3.1,0.4,-0.9,-0.9,6.18,10.1,92892.93,727.13,0.0,0.0,0.0
55711,2,55711,43,9.42,-0.45,3.2,0.4,-0.9,-0.9,6.12,10.1,92897.26,727.3,0.0,0.0,0.0
55757,2,55757,46,9.41,-0.47,3.1,0.4,-0.9,-0.9,6.12,10.1,92888.53,726.65,0.0,0.0,0.0
55803,2,55803,46,9.41,-0.43,2.99,0.4,-0.9,-0.9,6.12,10.2,92891.78,727.13,0.0,0.0,0.0
55849,2,55849,46,9.45,-0.43,3.0,0.4,-0.9,-0.9,6.18,10.2,92896.15,726.74,0.0,0.0,0.0
55895,2,55895,46,9.44,-0.44,3.1,0.4,-0.9,-0.9,6.18,10.2,92895.8,727.43,0.0,0.0,0.0
55941,2,55941,46,9.46,-0.48,2.97,0.4,-0.9,-0.9,6.18,10.2,92891.82,726.74,0.0,0.0,0.0
55984,2,55984,43,9.47,-0.44,2.94,0.4,-0.9,-0.9,6.25,10.1,92890.67,726.94,0.0,0.0,0.0
56035,2,56035,51,9.48,-0.44,2.96,0.4,-0.9,-0.9,6.18,10.2,92894.0,726.45,0.0,0.0,0.0
56081,2,56081,46,9.44,-0.42,3.0,0.4,-0.9,-0.9,6.12,10.2,92891.78,727.33,0.0,0.0,0.0
56127,2,56127,46,9.41,-0.44,3.0,0.4,-0.9,-0.9,6.12,10.2,92896.15,727.33,0.0,0.0,0.0
56174,2,56174,47,9.42,-0.46,2.96,0.4,-0.9,-0.9,6.18,10.2,92893.96,726.85,0.0,0.0,0.0
56220,2,56220,46,9.43,-0.46,2.99,0.4,-0.9,-0.10,6.18,10.1,92899.45,726.94,0.0,0.0,0.0
56263,2,56263,43,9.45,-0.41,3.0,0.4,-0.9,-0.9,6.25,10.2,92888.49,726.84,0.0,0.0,0.0
56309,2,56309,46,9.43,-0.45,3.0,0.4,-0.9,-0.10,6.18,10.3,92893.96,726.55,0.0,0.0,0.0
56355,2,56355,46,9.45,-0.41,3.5,0.4,-0.9,-0.9,6.25,10.2,92892.85,727.43,0.0,0.0,0.0
56401,2,56401,46,9.47,-0.41,2.97,0.4,-0.9,-0.9,6.18,10.3,92900.48,726.55,0.0,0.0,0.0
56447,2,56447,46,9.44,-0.43,2.96,0.4,-0.10,-0.9,6.25,10.3,92899.37,726.55,0.0,0.0,0.0
56493,2,56493,46,9.42,-0.46,3.3,0.4,-0.9,-0.9,6.25,10.2,92897.22,726.94,0.0,0.0,0.0
56553,2,56553,60,9.44,-0.47,2.97,0.4,-0.9,-0.9,6.18,10.0,92890.75,726.84,0.0,0.0,0.0
56599,2,56599,46,9.45,-0.41,3.9,0.4,-0.9,-0.9,6.18,10.0,92893.96,727.23,0.0,0.0,0.0
56645,2,56645,46,9.43,-0.43,2.94,0.4,-0.9,-0.9,6.25,10.1,92898.34,726.74,0.0,0.0,0.0
56691,2,56691,46,9.37,-0.44,3.0,0.4,-0.9,-0.9,6.25,10.1,92894.0,726.75,0.0,0.0,0.0
56737,2,56737,46,9.43,-0.48,3.0,0.4,-0.9,-0.9,6.18,10.2,92890.71,727.43,0.0,0.0,0.0
56783,2,56783,46,9.46,-0.45,3.0,0.4,-0.9,-0.9,6.25,10.1,92891.78,727.4,0.0,0.0,0.0
56826,2,56826,43,9.41,-0.43,2.99,0.4,-0.9,-0.9,6.25,10.2,92894.0,726.75,0.0,0.0,0.0
56872,2,56872,46,9.38,-0.43,2.99,0.4,-0.9,-0.10,6.25,10.1,92895.4,727.4,0.0,0.0,0.0
56918,2,56918,46,9.39,-0.42,2.96,0.4,-0.9,-0.9,6.12,10.2,92892.85,727.3,0.0,0.0,0.0
56964,2,56964,46,9.44,-0.45,2.96,0.4,-0.9,-0.9,6.18,10.2,92889.60,727.4,0.0,0.0,0.0
57010,2,57010,46,9.46,-0.45,3.0,0.4,-0.9,-0.9,6.18,10.2,92895.4,726.94,0.0,0.0,0.0
57062,2,57062,52,9.36,-0.47,2.98,0.4,-0.9,-0.9,6.18,10.2,92896.15,727.13,0.0,0.0,0.0
57105,2,57105,43,9.40,-0.48,2.95,0.4,-0.8,-0.9,6.25,10.2,92895.8,727.4,0.0,0.0,0.0
57151,2,57151,46,9.44,-0.47,3.0,0.4,-0.9,-0.9,6.25,10.1,92900.52,726.84,0.0,0.0,0.0
57198,2,57198,47,9.41,-0.42,3.0,0.4,-0.9,-0.9,6.31,10.1,92892.85,727.33,0.0,0.0,0.0
57244,2,57244,46,9.47,-0.43,3.0,0.4,-0.9,-0.9,6.18,10.1,92890.71,726.45,0.0,0.0,0.0
57290,2,57290,46,9.40,-0.43,3.0,0.4,-0.9,-0.9,6.31,10.1,92891.78,727.33,0.0,0.0,0.0
57336,2,57336,46,9.43,-0.45,2.94,0.4,-0.9,-0.9,6.18,10.1,92895.8,727.62,0.0,0.0,0.0
57379,2,57379,43,9.43,-0.43,3.1,0.4,-0.9,-0.9,6.18,10.1,92885.27,726.35,0.0,0.0,0.0
57425,2,57425,46,9.47,-0.48,2.99,0.4,-0.9,-0.9,6.18,10.0,92897.26,726.74,0.0,0.0,0.0
57471,2,57471,46,9.46,-0.43,2.95,0.4,-0.9,-0.9,6.25,10.1,92892.89,727.23,0.0,0.0,0.0
57517,2,57517,46,9.44,-0.40,3.2,0.4,-0.9,-0.10,6.25,10.0,92894.0,727.3,0.0,0.0,0.0
57568,2,57568,51,9.48,-0.46,2.96,0.4,-0.9,-0.9,6.18,10.1,92890.75,727.3,0.0,0.0,0.0
57614,2,57614,46,9.46,-0.46,2.98,0.4,-0.9,-0.9,6.25,10.0,92895.12,726.84,0.0,0.0,0.0
57658,2,57658,44,9.48,-0.46,2.97,0.4,-0.9,-0.10,6.25,10.0,92894.0,726.45,0.0,0.0,0.0
57705,2,57705,47,9.42,-0.42,2.95,0.4,-0.9,-0.9,6.25,10.0,92891.86,727.13,0.0,0.0,0.0
57751,2,57751,46,9.43,-0.39,3.3,0.4,-0.9,-0.9,6.25,10.0,92892.93,727.23,0.0,0.0,0.0
57797,2,57797,46,9.48,-0.41,2.97,0.4,-0.8,-0.9,6.31,9.99,92895.8,726.84,0.0,0.0,0.0
57843,2,57843,46,9.37,-0.41,3.3,0.4,-0.9,-0.9,6.25,10.1,92897.26,727.23,0.0,0.0,0.0
57889,2,57889,46,9.46,-0.46,3.0,0.4,-0.9,-0.9,6.18,10.0,92890.75,727.13,0.0,0.0,0.0
57932,2,57932,43,9.45,-0.45,2.96,0.4,-0.9,-0.9,6.25,10.0,92896.23,727.33,0.0,0.0,0.0
57978,2,57978,46,9.46,-0.37,3.3,0.4,-0.9,-0.9,6.25,10.1,92891.82,727.23,0.0,0.0,0.0
58024,2,58024,46,9.40,-0.41,3.1,0.4,-0.9,-0.10,6.18,10.0,92894.0,726.35,0.0,0.0,0.0
58075,2,58075,51,9.37,-0.44,3.2,0.4,-0.9,-0.9,6.25,10.0,92901.67,727.23,0.0,0.0,0.0
58121,2,58121,46,9.45,-0.42,3.6,0.4,-0.9,-0.9,6.25,10.1,92889.64,726.94,0.0,0.0,0.0
58167,2,58167,46,9.48,-0.48,2.96,0.4,-0.9,-0.9,6.18,10.0,92891.86,727.3,0.0,0.0,0.0
58211,2,58211,44,9.40,-0.44,3.1,0.4,-0.9,-0.9,6.18,10.0,92891.82,727.13,0.0,0.0,0.0
58257,2,58257,46,9.42,-0.41,2.97,0.4,-0.9,-0.9,6.25,10.0,92898.38,726.94,0.0,0.0,0.0
58303,2,58303,46,9.44,-0.44,2.99,0.4,-0.9,-0.10,6.25,10.0,92885.27,726.55,0.0,0.0,0.0
58349,2,58349,46,9.38,-0.44,3.2,0.4,-0.9,-0.9,6.18,10.1,92892.89,727.3,0.0,0.0,0.0
58395,2,58395,46,9.43,-0.43,3.3,0.4,-0.9,-0.9,6.25,10.0,92892.93,726.84,0.0,0.0,0.0
58441,2,58441,46,9.47,-0.47,2.98,0.4,-0.9,-0.10,6.18,10.1,92887.46,726.84,0.0,0.0,0.0
58484,2,58484,43,9.40,-0.44,3.3,0.4,-0.9,-0.9,6.25,10.1,92890.75,727.23,0.0,0.0,0.0
58530,2,58530,46,9.40,-0.40,3.2,0.4,-0.8,-0.9,6.18,10.0,92892.89,727.13,0.0,0.0,0.0
58581,2,58581,51,9.44,-0.45,2.98,0.4,-0.9,-0.9,6.31,10.1,92890.71,727.13,0.0,0.0,0.0
58627,2,58627,46,9.45,-0.41,3.5,0.4,-0.9,-0.10,6.31,10.1,92890.75,726.74,0.0,0.0,0.0
58673,2,58673,46,9.41,-0.41,3.2,0.4,-0.9,-0.9,6.31,10.1,92887.46,727.3,0.0,0.0,0.0
58719,2,58719,46,9.41,-0.45,2.99,0.4,-0.9,-0.9,6.25,10.0,92894.5,727.13,0.0,0.0,0.0
58764,2,58764,45,9.49,-0.43,2.97,0.4,-0.9,-0.9,6.18,10.1,92886.38,726.65,0.0,0.0,0.0
58810,2,58810,46,9.45,-0.39,2.96,0.4,-0.9,-0.10,6.31,10.0,92897.26,726.55,0.0,0.0,0.0
58856,2,58856,46,9.38,-0.44,3.1,0.4,-0.9,-0.9,6.25,10.1,92889.64,727.4,0.0,0.0,0.0
58902,2,58902,46,9.46,-0.44,2.90,0.4,-0.9,-0.9,6.25,10.1,92896.19,726.64,0.0,0.0,0.0
58948,2,58948,46,9.42,-0.44,3.1,0.4,-0.9,-0.10,6.31,10.1,92896.15,727.13,0.0,0.0,0.0
58994,2,58994,46,9.45,-0.43,2.94,0.4,-0.9,-0.9,6.18,10.1,92895.8,726.94,0.0,0.0,0.0
59037,2,59037,43,9.43,-0.44,3.1,0.4,-0.9,-0.9,6.18,10.0,92898.34,727.3,0.0,0.0,0.0
59098,2,59098,61,9.37,-0.45,3.3,0.4,-0.9,-0.9,6.25,10.0,92895.12,726.55,0.0,0.0,0.0
59144,2,59144,46,9.41,-0.42,3.2,0.4,-0.9,-0.10,6.25,10.0,92889.64,726.74,0.0,0.0,0.0
59190,2,59190,46,9.42,-0.44,3.2,0.4,-0.9,-0.9,6.25,10.1,92897.26,726.35,0.0,0.0,0.0
59237,2,59237,47,9.45,-0.42,3.5,0.4,-0.9,-0.9,6.31,10.0,92898.34,727.72,0.0,0.0,0.0
59283,2,59283,46,9.43,-0.47,2.96,0.4,-0.8,-0.9,6.25,10.1,92892.89,727.42,0.0,0.0,0.0
59326,2,59326,43,9.48,-0.49,3.3,0.4,-0.9,-0.9,6.25,10.0,92889.64,727.33,0.0,0.0,0.0
59372,2,59372,46,9.42,-0.43,2.99,0.4,-0.9,-0.9,6.31,10.1,92895.8,727.33,0.0,0.0,0.0
59418,2,59418,46,9.44,-0.43,2.96,0.4,-0.9,-0.9,6.25,10.2,92898.34,727.13,0.0,0.0,0.0
59464,2,59464,46,9.45,-0.44,2.98,0.4,-0.9,-0.9,6.25,10.2,92890.71,726.94,0.0,0.0,0.0
59510,2,59510,46,9.42,-0.43,2.98,0.4,-0.9,-0.9,6.25,10.2,92896.15,727.23,0.0,0.0,0.0
59556,2,59556,46,9.45,-0.45,2.97,0.4,-0.9,-0.9,6.25,10.1,92887.50,726.94,0.0,0.0,0.0
59618,2,59618,62,9.43,-0.47,2.97,0.4,-0.9,-0.9,6.25,10.0,92889.67,727.3,0.0,0.0,0.0
59664,2,59664,46,9.40,-0.41,3.1,0.4,-0.9,-0.9,6.25,10.1,92889.64,726.55,0.0,0.0,0.0
59710,2,59710,46,9.46,-0.44,2.98,0.4,-0.9,-0.10,6.25,10.1,92896.15,727.52,0.0,0.0,0.0
59756,2,59756,46,9.40,-0.43,2.99,0.4,-0.9,-0.9,6.25,10.2,92890.71,727.3,0.0,0.0,0.0
59802,2,59802,46,9.44,-0.40,2.99,0.4,-0.9,-0.9,6.25,10.1,92888.53,726.36,0.0,0.0,0.0
59848,2,59848,46,9.45,-0.44,2.97,0.4,-0.9,-0.10,6.25,10.1,92898.34,727.33,0.0,0.0,0.0
59891,2,59891,43,9.34,-0.46,3.0,0.4,-0.9,-0.9,6.31,10.1,92895.8,726.75,0.0,0.0,0.0
59937,2,59937,46,9.40,-0.45,2.98,0.4,-0.9,-0.9,6.25,10.2,92890.67,726.84,0.0,0.0,0.0
59983,2,59983,46,9.43,-0.43,3.1,0.4,-0.9,-0.9,6.31,10.2,92889.56,726.46,0.0,0.0,0.0
60029,2,60029,46,9.37,-0.44,3.3,0.4,-0.9,-0.9,6.31,10.2,92897.22,727.14,0.0,0.0,0.0
60075,2,60075,46,9.42,-0.45,2.98,0.4,-0.9,-0.9,6.37,10.2,92896.11,726.65,0.0,0.0,0.0
60126,2,60126,51,9.41,-0.44,2.99,0.4,-0.9,-0.9,6.31,10.2,92888.53,727.13,0.0,0.0,0.0
60169,2,60169,43,9.40,-0.46,2.93,0.4,-0.9,-0.9,6.25,10.1,92889.64,726.46,0.0,0.0,0.0
60215,2,60215,46,9.42,-0.42,2.98,0.4,-0.9,-0.9,6.25,10.2,92898.30,726.94,0.0,0.0,0.0
60262,2,60262,47,9.44,-0.39,3.0,0.4,-0.9,-0.9,6.37,10.2,92888.49,727.4,0.0,0.0,0.0
60308,2,60308,46,9.40,-0.48,2.99,0.4,-0.9,-0.9,6.31,10.3,92892.85,726.85,0.0,0.0,0.0
60354,2,60354,46,9.47,-0.41,2.98,0.4,-0.9,-0.9,6.18,10.3,92887.37,726.85,0.0,0.0,0.0
60400,2,60400,46,9.44,-0.48,2.96,0.4,-0.9,-0.9,6.31,10.2,92884.16,727.14,0.0,0.0,0.0
60443,2,60443,43,9.42,-0.42,3.1,0.4,-0.9,-0.9,6.25,10.2,92892.85,727.14,0.0,0.0,0.0
60489,2,60489,46,9.44,-0.46,3.4,0.4,-0.9,-0.9,6.25,10.3,92888.49,727.14,0.0,0.0,0.0
60535,2,60535,46,9.40,-0.43,2.98,0.4,-0.9,-0.9,6.31,10.3,92885.19,727.24,0.0,0.0,0.0
60581,2,60581,46,9.42,-0.42,3.1,0.4,-0.9,-0.9,6.37,10.3,92896.11,727.14,0.0,0.0,0.0
60632,2,60632,51,9.45,-0.44,3.0,0.4,-0.9,-0.9,6.25,10.2,92890.67,726.75,0.0,0.0,0.0
60678,2,60678,46,9.42,-0.45,2.95,0.4,-0.9,-0.9,6.31,10.2,92888.49,726.94,0.0,0.0,0.0
60721,2,60721,43,9.44,-0.45,2.97,0.4,-0.9,-0.9,6.31,10.2,92900.48,727.14,0.0,0.0,0.0
60767,2,60767,46,9.46,-0.48,2.99,0.4,-0.9,-0.9,6.25,10.3,92885.19,726.95,0.0,0.0,0.0
60813,2,60813,46,9.42,-0.45,2.96,0.4,-0.9,-0.9,6.31,10.2,92891.75,726.85,0.0,0.0,0.0
60859,2,60859,46,9.45,-0.46,3.0,0.4,-0.9,-0.9,6.31,10.2,92889.52,726.95,0.0,0.0,0.0
60905,2,60905,46,9.46,-0.44,3.5,0.4,-0.9,-0.9,6.31,10.3,92898.30,726.56,0.0,0.0,0.0
60951,2,60951,46,9.44,-0.42,3.3,0.4,-0.9,-0.9,6.31,10.2,92888.49,726.55,0.0,0.0,0.0
60995,2,60995,44,9.45,-0.43,3.4,0.4,-0.9,-0.9,6.25,10.3,92897.18,726.65,0.0,0.0,0.0
61041,2,61041,46,9.43,-0.44,2.98,0.4,-0.9,-0.9,6.25,10.4,92897.18,726.65,0.0,0.0,0.0
61087,2,61087,46,9.38,-0.44,3.5,0.4,-0.9,-0.9,6.25,10.3,92895.0,727.24,0.0,0.0,0.0
61148,2,61148,61,9.38,-0.44,3.3,0.4,-0.9,-0.9,6.25,10.1,92896.15,726.75,0.0,0.0,0.0
61194,2,61194,46,9.67,-0.48,3.1,0.4,-0.9,-0.9,6.31,10.3,92891.75,726.75,0.0,0.0,0.0
61240,2,61240,46,9.27,-0.44,2.90,0.4,-0.10,-0.10,6.31,10.3,92891.78,726.65,0.0,0.0,0.0
61284,2,61284,44,9.40,-0.41,2.84,0.4,-0.10,-0.9,6.18,10.2,92889.56,726.65,0.0,0.0,0.0
61330,2,61330,46,9.46,-0.40,3.5,0.4,-0.8,-0.9,6.37,10.3,92889.56,726.56,0.0,0.0,0.0
61376,2,61376,46,9.46,-0.39,3.3,0.4,-0.9,-0.9,6.25,10.4,92893.92,726.26,0.0,0.0,0.0
61422,2,61422,46,9.49,-0.40,2.95,0.4,-0.9,-0.9,6.25,10.3,92899.33,727.14,0.0,0.0,0.0
61468,2,61468,46,9.44,-0.44,2.97,0.4,-0.9,-0.9,6.25,10.3,92891.75,727.14,0.0,0.0,0.0
61514,2,61514,46,9.37,-0.44,2.99,0.4,-0.9,-0.9,6.25,10.3,92899.37,726.75,0.0,0.0,0.0
61557,2,61557,43,9.47,-0.43,3.5,0.4,-0.9,-0.9,6.25,10.3,92898.30,726.75,0.0,0.0,0.0
61603,2,61603,46,9.44,-0.41,3.1,0.4,-0.9,-0.9,6.25,10.3,92889.56,727.14,0.0,0.0,0.0
61655,2,61655,52,9.43,-0.45,3.1,0.4,-0.9,-0.9,6.31,10.3,92889.56,726.95,0.0,0.0,0.0
61701,2,61701,46,9.43,-0.44,2.99,0.4,-0.9,-0.9,6.18,10.2,92896.11,727.4,0.0,0.0,0.0
61747,2,61747,46,9.44,-0.42,3.2,0.4,-0.9,-0.9,6.31,10.4,92896.7,727.14,0.0,0.0,0.0
61793,2,61793,46,9.38,-0.44,3.4,0.4,-0.9,-0.9,6.25,10.3,92893.92,727.4,0.0,0.0,0.0
61836,2,61836,43,9.45,-0.38,3.1,0.4,-0.9,-0.9,6.25,10.3,92893.89,726.56,0.0,0.0,0.0
61882,2,61882,46,9.44,-0.44,2.99,0.4,-0.9,-0.10,6.25,10.3,92893.92,726.66,0.0,0.0,0.0
61928,2,61928,46,9.43,-0.45,2.99,0.4,-0.9,-0.9,6.25,10.3,92895.0,727.4,0.0,0.0,0.0
61974,2,61974,46,9.47,-0.39,3.2,0.4,-0.9,-0.9,6.25,10.3,92892.82,726.95,0.0,0.0,0.0
62020,2,62020,46,9.40,-0.40,3.4,0.4,-0.9,-0.10,6.25,10.3,92891.71,726.95,0.0,0.0,0.0
62066,2,62066,46,9.46,-0.44,3.6,0.4,-0.9,-0.10,6.25,10.3,92896.11,727.14,0.0,0.0,0.0
62109,2,62109,43,9.43,-0.45,2.98,0.4,-0.9,-0.9,6.31,10.2,92895.0,726.56,0.0,0.0,0.0
62160,2,62160,51,9.46,-0.47,2.99,0.4,-0.9,-0.9,6.37,10.3,92893.92,727.14,0.0,0.0,0.0
62206,2,62206,46,9.38,-0.44,3.4,0.4,-0.9,-0.9,6.31,10.3,92897.18,727.14,0.0,0.0,0.0
62252,2,62252,46,9.38,-0.38,3.4,0.4,-0.9,-0.9,6.25,10.3,92892.82,727.44,0.0,0.0,0.0
62299,2,62299,47,9.43,-0.46,2.99,0.4,-0.9,-0.9,6.25,10.3,92895.0,726.95,0.0,0.0,0.0
62345,2,62345,46,9.42,-0.41,3.2,0.4,-0.9,-0.9,6.25,10.3,92891.75,726.95,0.0,0.0,0.0
62388,2,62388,43,9.45,-0.45,2.98,0.4,-0.9,-0.9,6.25,10.4,92889.56,726.95,0.0,0.0,0.0
62434,2,62434,46,9.39,-0.46,2.95,0.4,-0.9,-0.9,6.37,10.3,92892.82,726.17,0.0,0.0,0.0
62480,2,62480,46,9.36,-0.39,3.1,0.4,-0.9,-0.9,6.25,10.4,92886.26,727.24,0.0,0.0,0.0
62526,2,62526,46,9.37,-0.43,3.2,0.4,-0.9,-0.9,6.25,10.3,92888.41,726.85,0.0,0.0,0.0
62572,2,62572,46,9.43,-0.38,3.3,0.4,-0.9,-0.9,6.31,10.3,92890.59,726.46,0.0,0.0,0.0
62618,2,62618,46,9.44,-0.44,3.1,0.4,-0.9,-0.9,6.31,10.4,92895.0,727.14,0.0,0.0,0.0
62666,2,62666,48,9.43,-0.44,2.98,0.4,-0.9,-0.9,6.25,10.3,92889.56,726.56,0.0,0.0,0.0
62712,2,62712,46,9.43,-0.46,2.97,0.4,-0.9,-0.9,6.31,10.3,92894.96,727.24,0.0,0.0,0.0
62758,2,62758,46,9.43,-0.44,2.97,0.4,-0.9,-0.9,6.31,10.4,92896.3,726.95,0.0,0.0,0.0
62804,2,62804,46,9.43,-0.43,3.0,0.4,-0.9,-0.10,6.37,10.3,92894.96,726.85,0.0,0.0,0.0
62850,2,62850,46,9.42,-0.41,3.2,0.4,-0.9,-0.9,6.25,10.4,92896.3,726.95,0.0,0.0,0.0
62896,2,62896,46,9.47,-0.42,3.1,0.4,-0.9,-0.9,6.31,10.4,92890.63,727.4,0.0,0.0,0.0
62939,2,62939,43,9.41,-0.45,3.0,0.4,-0.9,-0.9,6.25,10.4,92887.33,726.85,0.0,0.0,0.0
62985,2,62985,46,9.39,-0.42,3.3,0.4,-0.9,-0.9,6.37,10.3,92893.85,727.5,0.0,0.0,0.0
63031,2,63031,46,9.40,-0.47,2.97,0.4,-0.9,-0.9,6.31,10.4,92889.52,727.14,0.0,0.0,0.0
63077,2,63077,46,9.38,-0.44,3.4,0.4,-0.9,-0.9,6.37,10.5,92892.74,726.36,0.0,0.0,0.0
63123,2,63123,46,9.41,-0.41,3.9,0.4,-0.9,-0.9,6.31,10.5,92892.78,727.24,0.0,0.0,0.0
63174,2,63174,51,9.44,-0.43,2.96,0.4,-0.9,-0.9,6.31,10.4,92889.52,727.14,0.0,0.0,0.0
63218,2,63218,44,9.43,-0.47,2.96,0.4,-0.9,-0.9,6.37,10.4,92892.82,726.95,0.0,0.0,0.0
63264,2,63264,46,9.41,-0.43,2.93,0.4,-0.9,-0.9,6.31,10.3,92889.52,726.85,0.0,0.0,0.0
63311,2,63311,47,9.42,-0.46,2.98,0.4,-0.9,-0.9,6.31,10.4,92888.41,726.56,0.0,0.0,0.0
63357,2,63357,46,9.42,-0.44,3.2,0.4,-0.9,-0.9,6.31,10.5,92893.85,726.37,0.0,0.0,0.0
63403,2,63403,46,9.48,-0.43,2.94,0.4,-0.9,-0.9,6.37,10.4,92891.67,726.46,0.0,0.0,0.0
63449,2,63449,46,9.44,-0.43,2.99,0.4,-0.9,-0.10,6.31,10.4,92890.59,726.66,0.0,0.0,0.0
63492,2,63492,43,9.43,-0.44,3.3,0.4,-0.9,-0.9,6.37,10.5,92900.44,727.5,0.0,0.0,0.0
63538,2,63538,46,9.46,-0.46,2.97,0.4,-0.9,-0.9,6.31,10.5,92885.11,726.85,0.0,0.0,0.0
63584,2,63584,46,9.43,-0.44,3.2,0.4,-0.9,-0.9,6.31,10.5,92891.67,726.85,0.0,0.0,0.0
63630,2,63630,46,9.35,-0.42,3.0,0.4,-0.9,-0.9,6.37,10.5,92890.59,726.57,0.0,0.0,0.0
63691,2,63691,61,9.42,-0.42,3.1,0.4,-0.9,-0.9,6.37,10.3,92893.89,726.66,0.0,0.0,0.0
63737,2,63737,46,9.42,-0.44,3.2,0.4,-0.9,-0.9,6.37,10.4,92893.89,727.4,0.0,0.0,0.0
63780,2,63780,43,9.46,-0.43,2.97,0.4,-0.9,-0.9,6.31,10.3,92893.92,726.95,0.0,0.0,0.0
63826,2,63826,46,9.44,-0.44,3.1,0.4,-0.9,-0.9,6.37,10.4,92892.78,726.75,0.0,0.0,0.0
63872,2,63872,46,9.46,-0.41,2.97,0.4,-0.9,-0.9,6.37,10.4,92892.78,727.5,0.0,0.0,0.0
63918,2,63918,46,9.40,-0.40,2.99,0.4,-0.9,-0.9,6.31,10.4,92894.92,726.66,0.0,0.0,0.0
63964,2,63964,46,9.37,-0.44,3.3,0.4,-0.9,-0.10,6.25,10.5,92897.10,726.85,0.0,0.0,0.0
64010,2,64010,46,9.37,-0.44,3.6,0.4,-0.9,-0.9,6.31,10.4,92898.22,726.95,0.0,0.0,0.0
64053,2,64053,43,9.40,-0.46,2.98,0.4,-0.9,-0.9,6.31,10.5,92896.3,726.56,0.0,0.0,0.0
64099,2,64099,46,9.43,-0.48,3.2,0.4,-0.9,-0.9,6.37,10.4,92890.55,727.34,0.0,0.0,0.0
64145,2,64145,46,9.43,-0.38,3.3,0.4,-0.9,-0.9,6.37,10.5,92891.67,726.56,0.0,0.0,0.0
64196,2,64196,51,9.37,-0.41,2.99,0.4,-0.9,-0.9,6.43,10.5,92894.96,727.14,0.0,0.0,0.0
64242,2,64242,46,9.41,-0.41,3.1,0.4,-0.9,-0.9,6.37,10.5,92894.92,727.14,0.0,0.0,0.0
64288,2,64288,46,9.40,-0.42,3.2,0.4,-0.9,-0.9,6.31,10.5,92894.92,726.95,0.0,0.0,0.0
64332,2,64332,44,9.39,-0.45,3.1,0.4,-0.9,-0.9,6.25,10.4,92891.67,726.95,0.0,0.0,0.0
64378,2,64378,46,9.39,-0.40,3.7,0.4,-0.9,-0.9,6.37,10.6,92900.40,727.5,0.0,0.0,0.0
64424,2,64424,46,9.42,-0.42,3.5,0.4,-0.9,-0.9,6.31,10.5,92890.55,727.5,0.0,0.0,0.0
64470,2,64470,46,9.47,-0.42,3.6,0.4,-0.9,-0.9,6.37,10.5,92884.0,727.15,0.0,0.0,0.0
64516,2,64516,46,9.43,-0.42,3.1,0.4,-0.9,-0.9,6.43,10.5,92901.48,727.83,0.0,0.0,0.0
64562,2,64562,46,9.42,-0.45,3.1,0.4,-0.9,-0.9,6.37,10.5,92891.67,726.66,0.0,0.0,0.0
64605,2,64605,43,9.49,-0.41,3.6,0.4,-0.9,-0.9,6.43,10.6,92888.37,727.5,0.0,0.0,0.0
64651,2,64651,46,9.48,-0.49,2.92,0.4,-0.9,-0.9,6.37,10.5,92894.92,726.76,0.0,0.0,0.0
64702,2,64702,51,9.51,-0.46,2.96,0.4,-0.9,-0.9,6.31,10.4,92904.74,726.76,0.0,0.0,0.0
64748,2,64748,46,9.45,-0.45,3.1,0.4,-0.9,-0.9,6.37,10.5,92892.74,727.15,0.0,0.0,0.0
64794,2,64794,46,9.43,-0.41,3.0,0.4,-0.9,-0.9,6.37,10.5,92890.55,726.95,0.0,0.0,0.0
64840,2,64840,46,9.39,-0.42,2.94,0.4,-0.9,-0.9,6.37,10.5,92886.18,726.95,0.0,0.0,0.0
64883,2,64883,43,9.49,-0.44,3.0,0.4,-0.9,-0.9,6.37,10.4,92897.10,726.56,0.0,0.0,0.0
64929,2,64929,46,9.48,-0.49,2.94,0.4,-0.9,-0.9,6.31,10.6,92898.18,726.86,0.0,0.0,0.0
64975,2,64975,46,9.45,-0.48,2.97,0.4,-0.9,-0.9,6.37,10.5,92892.74,726.86,0.0,0.0,0.0
65021,2,65021,46,9.43,-0.44,2.96,0.4,-0.9,-0.9,6.37,10.5,92885.7,727.34,0.0,0.0,0.0
65067,2,65067,46,9.36,-0.37,2.95,0.4,-0.8,-0.10,6.31,10.5,92887.25,727.15,0.0,0.0,0.0
65113,2,65113,46,9.40,-0.44,3.1,0.4,-0.9,-0.9,6.31,10.5,92891.67,727.5,0.0,0.0,0.0
65156,2,65156,43,9.45,-0.44,2.97,0.4,-0.9,-0.9,6.37,10.5,92892.74,726.66,0.0,0.0,0.0
65208,2,65208,52,9.47,-0.46,2.99,0.4,-0.9,-0.9,6.37,10.5,92891.67,727.25,0.0,0.0,0.0
65254,2,65254,46,9.46,-0.39,3.1,0.4,-0.9,-0.10,6.43,10.5,92890.55,727.4,0.0,0.0,0.0
65300,2,65300,46,9.46,-0.45,2.99,0.4,-0.9,-0.9,6.31,10.5,92900.36,726.56,0.0,0.0,0.0
65347,2,65347,47,9.44,-0.39,3.0,0.4,-0.9,-0.9,6.31,10.5,92890.55,727.5,0.0,0.0,0.0
65393,2,65393,46,9.43,-0.44,3.0,0.4,-0.8,-0.9,6.37,10.5,92897.10,727.34,0.0,0.0,0.0
65440,2,65440,47,9.44,-0.40,3.3,0.4,-0.9,-0.9,6.31,10.4,92889.48,727.15,0.0,0.0,0.0
65486,2,65486,46,9.43,-0.41,3.2,0.4,-0.9,-0.9,6.37,10.5,92893.85,727.24,0.0,0.0,0.0
65532,2,65532,46,9.37,-0.47,3.1,0.4,-0.8,-0.9,6.37,10.5,92893.85,726.37,0.0,0.0,0.0
65578,2,65578,46,9.44,-0.45,3.0,0.4,-0.9,-0.9,6.37,10.5,92887.25,726.37,0.0,0.0,0.0
65624,2,65624,46,9.41,-0.42,2.99,0.4,-0.9,-0.9,6.31,10.5,92894.92,727.44,0.0,0.0,0.0
65670,2,65670,46,9.39,-0.44,3.3,0.4,-0.8,-0.9,6.37,10.5,92886.18,727.44,0.0,0.0,0.0
65727,2,65727,57,9.40,-0.45,3.0,0.4,-0.9,-0.9,6.37,10.4,92893.89,726.66,0.0,0.0,0.0
65773,2,65773,46,9.32,-0.43,2.99,0.4,-0.9,-0.9,6.37,10.4,92894.96,726.66,0.0,0.0,0.0
65819,2,65819,46,9.43,-0.44,3.2,0.4,-0.9,-0.9,6.25,10.5,92889.48,727.44,0.0,0.0,0.0
65865,2,65865,46,9.39,-0.44,2.99,0.4,-0.9,-0.9,6.43,10.6,92888.37,727.5,0.0,0.0,0.0
65911,2,65911,46,9.43,-0.40,3.9,0.4,-0.9,-0.9,6.37,10.6,92891.58,727.15,0.0,0.0,0.0
65957,2,65957,46,9.42,-0.46,3.0,0.4,-0.9,-0.9,6.37,10.6,92895.96,726.47,0.0,0.0,0.0
66000,2,66000,43,9.37,-0.43,3.3,0.4,-0.9,-0.9,6.37,10.6,92894.89,726.86,0.0,0.0,0.0
66046,2,66046,46,9.43,-0.45,3.2,0.4,-0.9,-0.9,6.37,10.6,92889.44,726.76,0.0,0.0,0.0
66092,2,66092,46,9.45,-0.43,2.99,0.4,-0.9,-0.9,6.43,10.6,92888.32,726.86,0.0,0.0,0.0
66138,2,66138,46,9.53,-0.42,3.5,0.4,-0.9,-0.9,6.43,10.6,92897.7,727.5,0.0,0.0,0.0
66184,2,66184,46,9.43,-0.40,3.4,0.4,-0.9,-0.10,6.31,10.5,92885.7,726.76,0.0,0.0,0.0
66236,2,66236,52,9.37,-0.43,3.1,0.4,-0.9,-0.9,6.43,10.5,92890.59,726.76,0.0,0.0,0.0
66279,2,66279,43,9.49,-0.41,2.96,0.4,-0.9,-0.9,6.37,10.4,92892.78,727.44,0.0,0.0,0.0
66325,2,66325,46,9.46,-0.39,3.3,0.4,-0.8,-0.9,6.43,10.4,92892.74,726.46,0.0,0.0,0.0
66372,2,66372,47,9.47,-0.43,2.96,0.4,-0.9,-0.9,6.37,10.5,92889.44,726.86,0.0,0.0,0.0
66418,2,66418,46,9.35,-0.44,3.2,0.4,-0.9,-0.9,6.37,10.6,92893.77,726.76,0.0,0.0,0.0
66464,2,66464,46,9.43,-0.45,2.99,0.4,-0.9,-0.9,6.37,10.5,92896.0,727.35,0.0,0.0,0.0
66510,2,66510,46,9.47,-0.44,2.99,0.4,-0.9,-0.9,6.37,10.5,92897.10,726.56,0.0,0.0,0.0
66553,2,66553,43,9.43,-0.42,3.1,0.4,-0.9,-0.9,6.37,10.5,92891.63,727.15,0.0,0.0,0.0
66599,2,66599,46,9.40,-0.44,2.99,0.4,-0.9,-0.9,6.43,10.5,92890.55,727.5,0.0,0.0,0.0
66645,2,66645,46,9.49,-0.42,3.6,0.4,-0.9,-0.9,6.43,10.6,92886.18,726.46,0.0,0.0,0.0
66691,2,66691,46,9.44,-0.43,3.0,0.4,-0.9,-0.10,6.43,10.6,92889.48,727.54,0.0,0.0,0.0
66742,2,66742,51,9.44,-0.41,2.99,0.4,-0.9,-0.9,6.43,10.5,92900.36,727.44,0.0,0.0,0.0
66788,2,66788,46,9.43,-0.44,2.94,0.4,-0.9,-0.9,6.37,10.5,92890.59,727.5,0.0,0.0,0.0
66831,2,66831,43,9.39,-0.45,2.94,0.4,-0.10,-0.10,6.43,10.5,92891.67,726.66,0.0,0.0,0.0
