millis(),Current_state,Calculated_flight_time,Time_since_last_log,IMU_accel_X,IMU_accel_Y,IMU_accel_Z,IMU_mag_X,IMU_mag_Y,IMU_mag_Z,IMU_gyro_X,IMU_gyro_Y,IMU_gyro_Z,IMU_temp,Raw_IMU_accel_X,Raw_IMU_accel_Y,Raw_IMU_accel_Z,Raw_IMU_mag_X,Raw_IMU_mag_Y,Raw_IMU_mag_Z,Raw_IMU_gyro_X,Raw_IMU_gyro_Y,Raw_IMU_gyro_Z,Raw_IMU_temp,BARO_temp,BARO_press,BARO_alt,Raw_BARO_temp,Raw_BARO_press,Raw_BARO_alt,Velocity_lastUpdate,Velocity_lastZAccel,Velocity_lastAlt,Velocity_inte,Velocity_diff,Velocity_est,Est_apogee,Target_air_brake_angle,Air_brake_angle,Battery_voltage,Z_accel_times_burnoutMass
4335,2,4335,4335,-6.780,0.551,-2.509,49.985,-20.260,39.476,0.462,0.510,1.116,-139.0,0.703,0.940,-1.404,48.669,-20.286,39.476,0.149,0.958,0.956,-139.0,23.668,91159.351,882.727,23.653,91160.742,882.333,4335,-2.509,882.333,0.0,0.0,0.0,0.0,0.0,0.0,3.963,-1.500
4384,2,4384,49,-4.937,-2.9,0.341,49.14,-20.116,39.856,-1.473,0.467,0.637,-139.0,5.778,-3.912,13.82,48.947,-19.541,39.652,-4.307,-4.681,-1.576,-139.0,23.661,91161.265,882.774,23.644,91169.789,882.966,4384,0.341,882.966,-53108.875,12.910,1.720,0.0,0.0,0.0,3.963,0.204
4425,2,4425,41,-5.573,-1.791,0.715,50.198,-20.795,38.678,-1.395,-1.270,0.555,-139.0,-1.931,0.552,0.203,55.42,-22.303,35.895,0.848,-1.587,0.429,-139.0,23.658,91163.125,882.746,23.653,91165.140,882.685,4425,0.715,882.685,-31443.279,-6.852,2.258,0.0,0.0,0.0,3.976,0.427
4461,2,4461,36,0.590,0.638,1.468,51.753,-21.61,37.594,-1.252,0.909,0.78,-139.0,-2.914,2.218,-2.681,55.977,-22.771,33.995,0.468,0.62,0.14,-139.0,23.657,91163.281,882.586,23.667,91158.945,882.192,4461,1.468,882.192,7866.519,-13.709,2.698,0.0,0.0,0.0,3.963,0.878
4505,2,4505,44,0.212,0.305,0.878,52.858,-21.625,36.723,0.834,-1.190,0.411,-139.0,-1.292,2.835,-4.806,55.656,-23.224,34.595,1.600,0.579,-1.23,-139.0,23.659,91162.656,882.600,23.676,91158.687,882.825,4505,0.878,882.825,59512.554,14.390,1.698,0.0,0.0,0.0,3.970,0.525
4541,2,4541,36,0.163,0.423,0.832,53.990,-22.151,36.164,0.539,-1.372,0.714,-139.0,0.459,1.529,-1.633,54.326,-22.917,36.685,1.324,0.48,0.558,-139.0,23.662,91163.382,882.680,23.671,91164.375,882.731,4541,0.832,882.731,90320.179,-2.602,2.84,0.0,0.0,0.0,3.976,0.498
4583,2,4583,42,-1.478,1.740,-1.306,54.747,-22.829,35.553,0.306,0.626,0.533,-139.0,0.796,2.670,2.386,52.733,-22.931,36.597,0.74,0.952,0.671,-139.0,23.670,91160.648,882.675,23.685,91156.109,882.943,4583,-1.306,882.943,80374.773,5.35,1.868,0.0,0.0,0.0,3.976,0.781
4619,2,4619,36,-1.717,1.902,-1.692,54.399,-22.958,35.662,0.455,0.298,0.551,-139.0,-3.122,0.258,-1.727,53.303,-22.946,36.436,0.104,0.56,0.519,-139.0,23.676,91159.562,882.750,23.681,91159.718,883.59,4619,-1.692,883.59,26393.214,3.239,1.911,0.0,0.0,0.0,3.970,-1.12
4662,2,4662,43,-1.305,2.132,-1.383,53.452,-23.118,36.179,0.384,0.42,0.664,-139.0,0.854,3.366,-1.138,51.242,-23.574,36.582,0.823,1.213,0.549,-139.0,23.680,91160.187,882.961,23.685,91162.46,883.247,4662,-1.383,883.247,-39751.601,4.368,1.884,0.0,0.0,0.0,3.970,0.827
4698,2,4698,36,0.859,2.57,0.620,52.262,-23.253,36.708,0.158,0.67,0.493,-139.0,0.933,2.462,0.987,49.707,-23.896,37.240,0.468,0.27,0.167,-139.0,23.681,91160.859,882.881,23.685,91162.46,882.427,4698,0.620,882.427,-75824.320,-22.791,4.162,0.0,0.0,0.0,3.970,0.370
4740,2,4740,42,0.974,1.708,0.440,51.262,-23.209,37.211,0.195,0.6,0.267,-139.0,-1.33,0.215,3.671,49.327,-22.698,39.199,1.511,0.256,0.570,-139.0,23.685,91160.601,882.947,23.690,91163.85,883.59,4740,0.440,883.59,-79589.62,15.62,1.688,0.0,0.0,0.0,3.963,0.263
4776,2,4776,36,-1.653,1.216,0.377,50.657,-23.60,37.851,0.251,0.305,0.75,-139.0,-4.192,0.208,-1.705,49.707,-22.186,39.798,0.204,0.539,0.290,-139.0,23.685,91160.140,883.12,23.685,91153.781,883.270,4776,0.377,883.270,-78448.601,5.842,1.850,0.0,0.0,0.0,3.963,0.225
4819,2,4819,43,-1.447,1.197,0.196,49.783,-22.774,38.690,0.279,0.288,0.2,-139.0,-2.88,0.165,0.822,48.933,-21.514,40.631,0.35,0.28,0.157,-139.0,23.685,91160.140,883.50,23.681,91159.718,883.247,4819,0.196,883.247,-90791.515,0.522,2.15,0.0,0.0,0.0,3.970,0.117
4855,2,4855,36,-1.648,0.727,0.177,49.245,-22.391,39.400,0.417,0.309,0.173,-139.0,-1.859,1.19,-1.45,48.553,-21.660,40.134,0.130,1.322,0.329,-139.0,23.684,91159.625,882.970,23.681,91159.468,882.848,4855,0.177,882.848,-97533.7,-11.91,2.498,0.0,0.0,0.0,3.970,0.106
4930,2,4930,75,-2.90,0.617,0.380,48.655,-21.929,40.216,0.302,0.369,0.200,-139.0,-1.277,1.909,-1.999,46.755,-21.587,41.318,0.106,0.270,0.32,-139.0,23.685,91159.46,883.22,23.690,91159.195,882.685,4930,0.380,882.685,-118469.109,-2.168,2.69,0.0,0.0,0.0,3.970,0.227
4966,2,4966,36,-1.869,0.982,-1.319,48.196,-21.745,40.499,0.2,0.326,0.138,-139.0,0.71,1.607,-1.23,47.33,-21.777,40.616,0.16,0.470,0.262,-139.0,23.681,91159.148,882.970,23.667,91163.593,882.802,4966,-1.319,882.802,-149063.218,3.239,1.911,0.0,0.0,0.0,3.970,0.788
5008,2,5008,42,0.808,1.508,-1.85,47.766,-21.616,40.707,0.33,0.239,0.100,-139.0,1.112,2.842,0.535,47.559,-21.543,40.836,0.52,0.105,0.101,-139.0,23.678,91159.406,882.928,23.671,91155.70,883.59,5008,-1.85,883.59,-199559.781,6.129,1.844,0.0,0.0,0.0,3.963,0.649
5044,2,5044,36,0.760,1.350,-1.3,47.573,-21.560,40.800,0.37,0.197,0.194,-139.0,-1.852,0.624,0.413,47.968,-21.236,41.99,0.13,0.242,0.314,-139.0,23.677,91159.406,882.891,23.676,91159.718,883.59,5044,-1.3,883.59,-237157.203,0.0,2.0,0.0,0.0,0.0,3.970,0.600
5087,2,5087,43,-1.12,1.257,-1.24,47.562,-21.368,40.941,0.33,0.9,0.108,-139.0,-3.115,0.552,-1.152,48.494,-20.695,40.836,0.111,0.291,0.101,-139.0,23.678,91159.453,882.891,23.685,91159.718,882.848,5087,-1.24,882.848,-280768.781,-4.916,2.173,0.0,0.0,0.0,3.976,0.612
5123,2,5123,36,-1.52,1.633,-1.152,47.527,-21.294,40.871,0.67,0.110,0.21,-139.0,-1.478,3.790,-2.638,46.579,-21.221,40.967,0.399,0.869,0.470,-139.0,23.678,91159.976,882.890,23.690,91161.789,882.683,5123,-1.152,882.683,-319968.437,-4.564,2.158,0.0,0.0,0.0,3.970,0.689
5165,2,5165,42,0.439,1.17,0.368,47.503,-21.204,40.748,0.111,0.67,0.64,-139.0,3.136,-1.471,2.895,46.916,-21.324,40.2,0.201,0.685,0.166,-139.0,23.683,91159.765,882.970,23.694,91162.570,883.199,5165,0.368,883.199,-351923.31,12.285,1.730,0.0,0.0,0.0,3.976,0.220
5201,2,5201,36,0.893,0.707,0.332,47.509,-21.163,40.561,0.107,0.25,0.125,-139.0,-1.155,1.292,0.355,47.588,-21.338,39.900,0.33,0.104,0.204,-139.0,23.687,91159.929,882.895,23.690,91155.851,882.683,5201,0.332,882.683,-364556.625,-14.333,2.754,0.0,0.0,0.0,3.970,0.199
5244,2,5244,43,-1.48,0.516,0.299,47.363,-21.134,40.283,0.58,0.205,0.95,-139.0,-2.627,-1.579,0.248,47.237,-21.90,39.710,0.229,0.656,0.466,-139.0,23.692,91159.359,882.904,23.699,91156.882,883.105,5244,0.299,883.105,-378165.93,9.808,1.772,0.0,0.0,0.0,3.970,0.179
5280,2,5280,36,0.186,0.443,0.285,46.913,-21.324,40.137,0.0,0.517,0.6,-139.0,1.191,0.186,-1.80,46.243,-21.645,40.105,0.408,1.853,0.408,-139.0,23.694,91158.531,882.857,23.699,91155.593,882.612,5280,0.285,882.612,-388705.437,-13.693,2.697,0.0,0.0,0.0,3.970,0.170
5322,2,5322,42,-1.249,2.516,0.280,46.790,-21.438,39.757,0.139,0.213,0.19,-139.0,-6.790,14.155,0.189,45.966,-21.791,39.67,0.294,0.650,0.408,-139.0,23.698,91158.226,882.880,23.708,91160.250,882.801,5322,0.280,882.801,-388822.93,4.486,1.881,0.0,0.0,0.0,3.970,0.167
5358,2,5358,36,-1.863,3.101,0.417,46.664,-21.663,39.707,0.178,0.327,0.175,-139.0,0.64,1.450,0.592,46.287,-22.449,39.754,0.5,0.119,0.614,-139.0,23.700,91157.85,882.800,23.704,91156.882,882.801,5358,0.417,882.801,-391299.593,0.0,2.0,0.0,0.0,0.0,3.976,0.249
5418,2,5418,60,-1.297,2.915,0.508,46.699,-21.888,39.517,0.128,0.125,0.277,-139.0,1.672,0.366,0.808,47.763,-22.464,38.950,0.284,-1.110,0.305,-139.0,23.704,91158.539,882.796,23.713,91163.85,882.660,5418,0.508,882.660,-419074.625,-2.345,2.75,0.0,0.0,0.0,3.970,0.303
5454,2,5454,36,-2.239,4.539,1.252,47.208,-22.81,39.286,0.214,0.97,0.236,-139.0,-7.336,6.539,8.552,49.780,-22.54,38.555,0.657,0.458,0.261,-139.0,23.705,91157.609,882.627,23.704,91152.234,882.262,5454,1.252,882.262,-405684.843,-11.60,2.496,0.0,0.0,0.0,3.976,0.748
5500,2,5500,46,-2.776,4.581,1.276,48.111,-22.280,38.763,0.139,0.520,0.240,-139.0,-1.493,0.394,0.958,50.760,-22.639,37.489,0.34,0.265,0.432,-139.0,23.705,91158.796,882.655,23.699,91161.539,882.754,5500,1.276,882.754,-347530.625,10.703,1.756,0.0,0.0,0.0,3.970,0.763
5538,2,5538,38,-1.507,1.903,1.66,49.286,-22.396,38.339,0.71,0.643,0.240,-139.0,0.445,0.768,0.858,51.841,-22.376,36.948,0.43,-1.265,0.412,-139.0,23.702,91160.195,882.590,23.690,91167.226,882.473,5538,1.66,882.473,-303009.62,-7.407,2.285,0.0,0.0,0.0,3.976,0.637
5581,2,5581,43,-2.287,1.801,1.42,50.663,-22.329,37.562,0.77,0.883,0.52,-139.0,-3.833,0.940,0.714,53.171,-22.113,35.866,0.23,-1.318,0.324,-139.0,23.699,91160.242,882.707,23.690,91157.140,883.387,5581,1.42,883.387,-257660.796,21.272,1.610,0.0,0.0,0.0,3.976,0.623
5617,2,5617,36,-3.105,1.841,0.953,51.990,-22.242,36.995,0.191,0.477,0.12,-139.0,-2.419,0.567,-1.253,54.399,-22.25,36.115,0.282,0.918,0.105,-139.0,23.695,91160.398,882.834,23.694,91163.859,883.293,5617,0.953,883.293,-221736.359,-2.617,2.85,0.0,0.0,0.0,3.976,0.570
5659,2,5659,42,-2.167,0.692,0.716,52.198,-22.294,36.848,0.158,0.299,0.11,-139.0,-2.648,0.789,0.203,50.818,-22.318,37.825,0.494,0.433,0.142,-139.0,23.694,91163.453,882.853,23.699,91167.476,882.356,5659,0.716,882.356,-216757.734,-22.314,4.25,0.0,0.0,0.0,3.970,0.428
5696,2,5696,37,-2.242,1.4,-1.98,51.660,-22.274,37.199,0.209,0.176,0.33,-139.0,-1.866,1.959,-2.868,48.70,-22.537,39.242,0.288,2.113,0.321,-139.0,23.693,91162.718,882.876,23.690,91157.921,882.871,5696,-1.98,882.871,-250326.500,13.930,1.705,0.0,0.0,0.0,3.976,0.656
5739,2,5739,43,-2.261,1.458,-1.66,50.990,-22.294,37.775,0.241,0.481,0.12,-139.0,0.538,3.36,0.700,48.494,-22.478,39.827,0.120,0.261,0.308,-139.0,23.694,91161.171,882.806,23.699,91159.468,882.121,5739,-1.66,882.121,-296870.500,-17.439,3.97,0.0,0.0,0.0,3.976,0.637
5775,2,5775,36,-1.831,1.692,-1.353,50.134,-22.446,38.436,0.178,0.518,0.19,-139.0,-1.686,2.110,-2.150,48.889,-22.873,39.169,0.291,-1.132,0.357,-139.0,23.696,91161.171,882.745,23.699,91157.140,883.82,5775,-1.353,883.82,-340437.531,26.672,1.555,0.0,0.0,0.0,3.976,0.809
5817,2,5817,42,-2.422,3.122,-3.770,49.152,-22.481,39.231,0.85,0.299,0.43,-139.0,-5.369,7.716,-13.334,49.488,-22.201,40.90,0.186,0.177,0.419,-139.0,23.695,91160.31,882.599,23.690,91158.179,882.567,5817,-3.770,882.567,-448037.375,-12.259,2.581,0.0,0.0,0.0,3.963,-2.254
5859,2,5859,42,-3.658,4.910,-3.553,49.181,-22.367,39.576,0.75,0.506,0.258,-139.0,-8.829,9.726,1.287,50.964,-21.748,39.549,0.444,1.465,1.214,-139.0,23.694,91159.773,882.707,23.694,91166.187,882.894,5859,-3.553,882.894,-601826.375,7.799,1.810,0.0,0.0,0.0,3.976,-2.124
5932,2,5932,73,-3.83,4.844,-3.82,49.622,-22.277,39.470,0.22,0.137,0.202,-139.0,1.4,1.629,0.513,50.277,-22.84,38.716,0.26,0.269,0.43,-139.0,23.697,91161.70,882.763,23.704,91164.375,883.153,5932,-3.82,883.153,-844025.312,3.541,1.903,0.0,0.0,0.0,3.976,-1.843
5975,2,5975,43,-3.227,4.460,-3.112,49.865,-22.104,39.269,0.0,0.270,0.256,-139.0,-1.256,1.119,0.851,49.707,-21.616,38.819,0.2,0.928,0.39,-139.0,23.693,91160.398,882.993,23.681,91156.109,883.270,5975,-3.112,883.270,-977214.125,2.712,1.924,0.0,0.0,0.0,3.976,-1.861
6012,2,6012,37,-2.881,4.271,-2.773,49.701,-21.791,39.245,0.63,0.643,0.301,-139.0,0.43,1.162,0.456,48.70,-21.309,39.52,0.31,0.731,0.129,-139.0,23.691,91162.210,882.909,23.685,91166.187,882.660,6012,-2.773,882.660,-1086108.0,-16.476,2.977,0.0,0.0,0.0,3.976,-1.658
6054,2,6054,42,-1.605,2.858,0.80,49.155,-21.783,39.125,0.137,0.636,0.91,-139.0,1.12,0.653,0.936,46.755,-22.157,39.491,0.180,0.213,0.630,-139.0,23.691,91162.460,883.157,23.690,91159.468,883.809,6054,0.80,883.809,-1142664.625,27.349,1.549,0.0,0.0,0.0,3.976,0.48
6090,2,6090,36,0.110,1.115,0.156,48.351,-21.853,39.155,0.127,0.161,0.332,-139.0,0.251,1.12,0.103,46.945,-22.98,39.695,0.394,0.910,0.904,-139.0,23.692,91161.539,883.176,23.699,91161.539,882.989,6090,0.156,882.989,-1144030.875,-22.779,4.158,0.0,0.0,0.0,3.970,0.93
6133,2,6133,43,0.522,1.695,0.186,47.769,-21.946,39.313,0.115,0.57,0.404,-139.0,3.65,4.529,1.201,47.369,-22.551,39.505,0.29,0.825,0.317,-139.0,23.692,91161.23,882.955,23.704,91161.789,882.51,6133,0.186,882.51,-1143378.625,-21.806,3.891,0.0,0.0,0.0,3.976,0.111
6169,2,6169,36,0.443,2.308,0.274,47.781,-22.84,39.497,0.21,0.476,0.325,-139.0,-1.651,4.185,-3.155,49.766,-22.303,39.739,0.684,-1.165,0.354,-139.0,23.693,91162.109,882.815,23.690,91161.539,882.567,6169,0.274,882.567,-1144951.625,14.331,1.699,0.0,0.0,0.0,3.970,0.163
6212,2,6212,43,0.163,1.651,0.175,48.281,-22.69,39.678,0.45,0.750,0.292,-139.0,-2.993,-2.124,0.38,50.570,-21.236,39.959,0.86,0.637,0.34,-139.0,23.696,91160.757,882.731,23.699,91159.468,882.239,6212,0.175,882.239,-1154609.125,-7.629,2.296,0.0,0.0,0.0,3.976,0.104
6248,2,6248,36,0.839,1.715,0.559,48.979,-21.882,39.739,0.95,0.696,0.265,-139.0,-2.368,0.976,0.987,50.248,-21.221,39.798,0.69,0.55,0.496,-139.0,23.697,91161.375,882.318,23.694,91162.570,881.746,6248,0.559,881.746,-1167837.125,-13.678,2.695,0.0,0.0,0.0,3.976,0.334
6291,2,6291,43,-1.261,1.741,-1.93,49.359,-21.762,39.871,0.182,0.442,0.100,-139.0,-2.361,1.141,-2.566,48.845,-21.499,40.353,0.41,0.362,0.80,-139.0,23.696,91160.703,882.234,23.694,91158.179,882.567,6291,-1.93,882.567,-1203392.375,19.81,1.635,0.0,0.0,0.0,3.976,0.654
6327,2,6327,36,-1.943,0.134,0.828,49.526,-21.560,40.163,0.202,0.299,0.41,-139.0,0.344,-3.503,2.529,48.202,-21.543,40.967,0.132,0.113,0.22,-139.0,23.695,91160.453,882.365,23.699,91160.500,882.706,6327,0.828,882.706,-1237992.125,3.865,1.896,0.0,0.0,0.0,3.976,0.495
6369,2,6369,42,0.897,0.15,0.264,49.315,-21.382,40.461,0.52,0.17,0.43,-139.0,3.582,3.431,0.334,48.713,-21.411,41.230,0.68,0.247,0.780,-139.0,23.696,91159.781,882.365,23.694,91158.179,882.567,6369,0.264,882.567,-1260932.0,-3.313,2.110,0.0,0.0,0.0,3.976,0.157
6439,2,6439,70,0.732,0.681,0.407,49.263,-21.324,40.508,0.20,0.3,0.34,-139.0,-2.167,1.363,0.678,50.306,-20.944,40.192,0.74,0.536,0.6,-139.0,23.695,91160.546,882.440,23.694,91163.335,882.614,6439,0.407,882.614,-1284442.125,0.673,1.980,0.0,0.0,0.0,3.970,0.243
6480,2,6480,41,-1.511,0.427,0.226,49.254,-21.216,40.657,0.54,0.59,0.144,-139.0,-6.266,0.294,2.185,50.204,-20.681,40.543,0.240,0.336,0.52,-139.0,23.692,91161.640,882.637,23.676,91167.992,882.731,6480,0.226,882.731,-1288146.625,2.858,1.921,0.0,0.0,0.0,3.970,0.135
6516,2,6516,36,-1.467,0.255,0.633,49.269,-20.809,40.748,0.62,0.36,0.157,-139.0,-2.139,0.279,0.535,48.918,-19.467,40.806,0.82,0.113,0.14,-139.0,23.688,91162.414,882.693,23.676,91162.46,882.848,6516,0.633,882.848,-1272663.625,3.241,1.911,0.0,0.0,0.0,3.970,0.378
6559,2,6559,43,-1.35,0.216,0.121,49.362,-20.540,40.707,0.71,0.20,0.150,-139.0,1.816,-3.696,-1.246,48.669,-20.198,40.762,0.175,0.34,0.61,-139.0,23.685,91163.390,882.661,23.685,91165.406,882.543,6559,0.121,882.543,-1261670.750,-7.82,2.269,0.0,0.0,0.0,3.963,0.72
6595,2,6595,36,-1.902,0.389,0.124,49.374,-20.301,40.707,0.91,0.43,0.50,-139.0,0.753,0.401,0.348,48.772,-20.213,41.230,0.32,0.131,0.222,-139.0,23.683,91164.117,882.571,23.685,91161.789,882.121,6595,0.124,882.121,-1266112.250,-11.715,2.541,0.0,0.0,0.0,3.970,0.74
6637,2,6637,42,-1.511,0.0,0.53,49.181,-20.87,41.34,0.146,0.62,0.44,-139.0,0.215,3.309,0.211,49.342,-19.877,41.829,0.200,0.4,0.24,-139.0,23.682,91164.273,882.618,23.690,91164.117,882.848,6637,0.53,882.848,-1267615.750,17.293,1.658,0.0,0.0,0.0,3.963,0.31
6674,2,6674,37,0.423,0.211,0.509,48.895,-19.824,41.365,0.103,0.4,0.52,-139.0,0.825,0.760,0.628,48.772,-19.365,42.195,0.28,0.43,0.10,-139.0,23.685,91163.750,882.627,23.690,91165.406,882.777,6674,0.509,882.777,-1276058.500,-1.910,2.60,0.0,0.0,0.0,3.976,0.304
6716,2,6716,42,0.864,-1.59,0.624,47.670,-19.503,41.619,0.242,0.509,0.24,-139.0,4.299,-6.72,5.135,42.794,-17.860,42.78,0.776,2.412,0.128,-139.0,23.687,91161.890,882.651,23.685,91152.742,882.965,6716,0.624,882.965,-1273642.625,4.473,1.881,0.0,0.0,0.0,3.970,0.373
6752,2,6752,36,0.502,0.235,0.116,46.501,-18.675,41.470,0.275,0.564,0.1,-139.0,0.7,2.778,-3.787,42.823,-16.62,40.17,0.337,0.239,0.53,-139.0,23.687,91161.429,882.712,23.685,91163.85,882.848,6752,0.116,882.848,-1260304.500,-3.255,2.108,0.0,0.0,0.0,3.970,0.69
6799,2,6799,47,0.27,0.173,0.433,44.694,-17.652,41.268,0.312,0.588,0.62,-139.0,-3.402,0.93,1.237,39.739,-15.97,40.222,0.219,0.250,0.97,-139.0,23.688,91161.484,882.815,23.690,91162.46,882.637,6799,0.433,882.637,-1247378.125,-4.486,2.155,0.0,0.0,0.0,3.970,0.259
6836,2,6836,37,0.51,0.463,0.208,42.917,-16.559,41.58,0.260,0.579,0.65,-139.0,0.179,0.122,0.915,40.456,-14.410,40.777,0.58,0.50,0.37,-139.0,23.686,91160.140,882.815,23.681,91157.398,882.848,6836,0.208,882.848,-1235502.125,5.699,1.853,0.0,0.0,0.0,3.963,0.124
6880,2,6880,44,0.44,0.887,0.31,41.394,-15.510,40.786,0.212,0.602,0.90,-139.0,-1.306,-1.356,-1.827,41.157,-14.118,40.836,0.213,0.161,0.135,-139.0,23.685,91158.539,882.763,23.685,91157.398,882.520,6880,0.31,882.520,-1231613.0,-7.444,2.287,0.0,0.0,0.0,3.963,0.18
6949,2,6949,69,-1.167,0.888,-2.11,40.958,-14.948,40.380,0.66,0.120,0.129,-139.0,-1.313,2.806,-4.763,40.616,-15.54,40.46,0.48,0.2,0.324,-139.0,23.685,91160.296,882.914,23.685,91161.523,883.716,6949,-2.11,883.716,-1302089.750,17.330,1.657,0.0,0.0,0.0,3.970,-1.202
6991,2,6991,42,-1.392,0.73,-3.40,40.216,-14.434,39.915,0.166,0.164,0.151,-139.0,-1.119,-2.31,-8.934,39.111,-13.490,37.693,0.836,0.460,0.160,-139.0,23.681,91160.914,883.31,23.662,91166.171,883.434,6991,-3.40,883.434,-1408182.125,-6.703,2.251,0.0,0.0,0.0,3.970,-1.818
7028,2,7028,37,0.551,0.147,-3.260,39.701,-13.145,38.500,0.75,0.125,0.161,-139.0,0.803,0.279,0.139,37.167,-8.652,33.148,0.234,0.53,0.151,-139.0,23.675,91160.601,883.125,23.662,91160.484,883.107,7028,-3.260,883.107,-1524751.875,-8.853,2.361,0.0,0.0,0.0,3.976,-1.949
7070,2,7070,42,0.802,0.338,-3.146,39.178,-11.625,36.854,0.81,0.134,0.169,-132.600,-1.76,0.832,0.348,37.839,-6.810,32.548,0.31,0.4,0.74,-107.0,23.672,91161.164,882.943,23.667,91160.234,881.935,7070,-3.146,881.935,-1659305.375,-27.895,7.130,0.0,0.0,0.0,3.970,-1.881
7106,2,7106,36,0.607,0.165,-2.848,38.421,-10.140,35.141,0.121,0.118,0.101,-132.600,0.330,0.488,0.334,37.372,-6.693,32.271,0.11,0.81,0.204,-139.0,23.668,91161.992,882.915,23.662,91161.523,882.381,7106,-2.848,882.381,-1767220.250,12.369,1.729,0.0,0.0,0.0,3.970,-1.703
7149,2,7149,43,0.423,-1.653,-2.390,37.626,-8.500,33.829,0.236,0.145,0.39,-132.600,0.394,-4.637,-2.473,36.641,-6.854,33.484,0.620,0.138,0.381,-139.0,23.664,91161.984,882.708,23.667,91161.523,882.685,7149,-2.390,882.685,-1879851.375,7.82,1.824,0.0,0.0,0.0,3.963,-1.429
7185,2,7185,36,0.791,0.406,-2.153,37.459,-7.205,33.586,0.49,0.41,0.132,-132.600,4.953,8.269,-7.749,38.278,-7.15,36.480,0.97,0.62,0.302,-139.0,23.662,91161.984,882.596,23.653,91166.171,882.872,7185,-2.153,882.872,-1961639.500,5.203,1.864,0.0,0.0,0.0,3.963,-1.287
7227,2,7227,42,1.194,0.890,-1.899,37.617,-6.951,35.27,0.336,0.80,0.143,-132.600,2.821,2.139,1.409,37.956,-7.380,40.353,1.198,0.248,0.95,-139.0,23.661,91160.390,882.568,23.658,91152.476,882.966,7227,-1.899,882.966,-2046747.750,2.229,1.937,0.0,0.0,0.0,3.970,-1.135
7263,2,7263,36,1.312,1.58,-1.915,37.702,-6.942,36.693,0.323,0.73,0.81,-139.0,0.488,0.7,0.427,38.263,-6.767,40.879,0.91,0.39,0.387,-139.0,23.658,91159.765,882.713,23.648,91157.125,882.662,7263,-1.915,882.662,-2115407.750,-8.458,2.340,0.0,0.0,0.0,3.976,-1.145
7306,2,7306,43,1.405,0.888,-2.38,37.962,-6.948,38.401,0.290,0.85,0.34,-139.0,0.136,-1.335,0.951,38.672,-6.723,40.806,0.179,0.141,0.27,-139.0,23.656,91158.882,882.849,23.653,91157.125,883.60,7306,-2.38,883.60,-2200412.500,9.273,1.782,0.0,0.0,0.0,3.970,-1.219
7342,2,7342,36,1.424,1.640,-2.146,38.9,-7.196,39.532,0.80,0.76,0.50,-139.0,0.301,0.875,-3.11,36.875,-8.97,39.140,0.428,0.96,0.44,-139.0,23.651,91158.937,882.760,23.644,91161.773,882.240,7342,-2.146,882.240,-2275740.0,-22.791,4.162,0.0,0.0,0.0,3.963,-1.283
7384,2,7384,42,0.83,0.720,-1.32,37.775,-7.299,40.99,0.86,0.88,0.121,-139.0,-1.751,-3.538,-2.179,37.109,-7.527,39.315,0.66,0.4,0.52,-139.0,23.650,91157.843,882.737,23.648,91160.742,882.756,7384,-1.32,882.756,-2342487.250,12.284,1.730,0.0,0.0,0.0,3.976,0.617
7433,2,7433,49,0.699,-1.885,-2.40,37.401,-7.497,38.807,0.312,0.42,0.148,-139.0,5.900,-3.682,-3.629,36.85,-8.374,33.893,0.797,0.19,0.227,-139.0,23.648,91159.296,882.732,23.644,91159.703,882.944,7433,-2.40,882.944,-2417756.0,3.834,1.896,0.0,0.0,0.0,3.970,-1.219
7475,2,7475,42,0.600,-2.203,-2.42,36.831,-7.418,36.574,0.314,0.48,0.112,-139.0,0.983,-1.586,0.442,35.413,-6.372,29.713,0.100,0.10,0.209,-139.0,23.647,91159.351,882.732,23.644,91157.382,882.662,7475,-2.42,882.662,-2503497.500,-6.715,2.252,0.0,0.0,0.0,3.976,-1.221
7512,2,7512,37,0.694,-2.163,-1.722,36.135,-7.635,34.288,0.278,0.39,0.108,-139.0,0.610,-1.134,0.649,35.194,-7.804,29.377,0.0,0.97,0.6,-139.0,23.645,91160.742,882.695,23.644,91164.101,882.872,7512,-1.722,882.872,-2573161.750,5.699,1.853,0.0,0.0,0.0,3.970,-1.30
7555,2,7555,43,0.595,-1.636,-1.233,35.685,-7.307,32.353,0.170,0.47,0.109,-139.0,0.796,1.758,0.564,34.624,-6.460,29.465,0.114,0.134,0.50,-139.0,23.644,91159.601,882.859,23.639,91156.93,883.60,7555,-1.233,883.60,-2636713.750,4.368,1.884,0.0,0.0,0.0,3.970,0.737
7591,2,7591,36,1.106,-1.147,0.905,35.106,-7.144,30.420,0.187,0.63,0.102,-139.0,0.803,-1.91,0.542,34.215,-6.708,29.655,0.154,0.73,0.19,-139.0,23.645,91159.140,882.962,23.653,91158.414,883.271,7591,0.905,883.271,-2675215.750,5.857,1.850,0.0,0.0,0.0,3.976,0.541
7634,2,7634,43,0.27,0.386,0.243,34.811,-6.837,29.456,0.31,0.69,0.61,-139.0,0.502,0.122,0.320,34.609,-6.840,29.70,0.17,0.53,0.22,-139.0,23.647,91159.296,882.905,23.653,91160.484,882.662,7634,0.243,882.662,-2699936.500,-14.177,2.740,0.0,0.0,0.0,3.976,0.145
7670,2,7670,36,0.170,0.134,0.213,34.580,-6.936,29.368,0.14,0.83,0.20,-139.0,0.265,0.330,0.291,34.258,-6.869,29.275,0.15,0.57,0.1,-139.0,23.648,91159.39,882.971,23.648,91156.93,882.990,7670,0.213,882.990,-2708176.750,9.112,1.785,0.0,0.0,0.0,3.976,0.127
7712,2,7712,42,0.209,0.658,0.47,34.334,-6.819,29.409,0.151,0.38,0.14,-139.0,-1.292,2.835,1.481,33.966,-7.220,29.581,0.831,0.128,0.22,-139.0,23.649,91156.968,882.990,23.653,91153.765,882.966,7712,0.47,882.966,-2713660.0,0.560,2.17,0.0,0.0,0.0,3.970,0.28
7748,2,7748,36,0.262,0.498,0.14,34.902,-7.354,30.99,0.151,0.0,0.7,-139.0,1.564,0.954,0.255,37.459,-9.134,32.914,0.112,0.60,0.14,-139.0,23.652,91156.453,882.910,23.653,91153.507,882.662,7748,0.14,882.662,-2714251.0,-8.458,2.340,0.0,0.0,0.0,3.970,0.8
7791,2,7791,43,0.11,0.386,0.54,36.208,-8.132,30.876,0.202,0.65,0.71,-139.0,0.452,-1.651,0.341,40.748,-10.596,33.542,0.100,0.251,0.341,-139.0,23.651,91157.539,882.788,23.648,91163.843,882.662,7791,0.54,882.662,-2712765.250,0.0,2.0,0.0,0.0,0.0,3.976,0.32
7828,2,7828,37,-1.448,0.613,-1.747,37.448,-8.909,31.911,0.226,0.155,0.25,-132.600,-6.798,1.256,-9.329,40.806,-10.727,34.244,0.103,0.397,0.207,-107.0,23.650,91158.7,882.915,23.648,91162.812,883.295,7828,-1.747,883.295,-2744076.500,17.112,1.660,0.0,0.0,0.0,3.976,-1.44
7869,2,7869,41,-1.563,0.571,-1.886,38.512,-9.719,32.855,0.233,0.142,0.1,-126.199,0.839,0.538,0.987,39.579,-10.917,33.995,0.21,0.124,0.116,-107.0,23.652,91155.890,882.830,23.658,91145.500,882.568,7869,-1.886,882.568,-2818564.250,-17.715,3.134,0.0,0.0,0.0,3.976,-1.128
7905,2,7905,36,-1.615,0.452,-2.321,39.614,-10.111,33.586,0.42,0.92,0.9,-119.800,-1.550,-2.282,0.693,39.476,-9.178,33.235,0.128,0.123,0.14,-107.0,23.652,91157.695,882.835,23.653,91162.812,882.990,7905,-2.321,882.990,-2894305.250,11.700,1.740,0.0,0.0,0.0,3.976,-1.388
7981,2,7981,76,-1.378,0.213,-3.118,39.128,-9.792,33.472,0.175,0.35,0.10,-113.400,2.749,4.285,-4.239,35.33,-7.541,32.344,0.975,0.224,0.84,-107.0,23.652,91157.851,882.929,23.653,91154.273,883.131,7981,-3.118,883.131,-3101012.0,1.859,1.947,0.0,0.0,0.0,3.976,-1.864
8017,2,8017,36,-3.468,0.271,-3.613,38.333,-9.672,32.838,0.312,0.28,0.72,-107.0,-10.904,-1.363,-2.818,36.772,-9.997,30.371,0.583,0.217,0.29,-107.0,23.648,91157.539,883.65,23.630,91162.289,883.342,8017,-3.613,883.342,-3222184.0,5.857,1.850,0.0,0.0,0.0,3.976,-2.160
8060,2,8060,43,-2.674,0.21,-1.915,37.214,-8.675,31.721,0.303,0.30,0.35,-107.0,-2.828,0.7,0.836,35.209,-5.743,28.661,0.149,0.103,0.22,-107.0,23.647,91157.226,882.948,23.639,91161.250,882.709,8060,-1.915,882.709,-3341050.250,-14.713,2.790,0.0,0.0,0.0,3.976,-1.145
8097,2,8097,37,-2.331,0.107,-1.754,36.398,-7.705,30.695,0.307,0.1,0.7,-107.0,0.875,-1.184,0.183,35.501,-6.65,28.865,0.0,0.35,0.26,-107.0,23.641,91159.859,883.42,23.630,91158.671,883.37,8097,-1.754,883.37,-3408935.0,8.868,1.789,0.0,0.0,0.0,3.970,-1.49
8144,2,8144,47,-1.923,0.188,-1.681,35.647,-7.103,29.970,0.255,0.5,0.5,-113.400,0.488,0.803,0.327,35.720,-6.167,29.611,0.133,0.103,0.22,-139.0,23.638,91158.148,883.28,23.639,91154.273,882.920,8144,-1.681,882.920,-3489667.500,-2.493,2.80,0.0,0.0,0.0,3.976,-1.5
8181,2,8181,37,-2.542,0.808,0.913,35.635,-6.740,29.473,0.66,0.42,0.12,-119.800,0.344,0.696,0.399,34.975,-5.729,29.859,0.31,0.41,0.6,-139.0,23.635,91158.820,882.864,23.635,91157.632,882.311,8181,0.913,882.311,-3537658.500,-16.462,2.975,0.0,0.0,0.0,3.970,0.545
8225,2,8225,44,0.407,0.660,0.430,35.273,-5.852,29.333,0.47,0.5,0.6,-126.199,0.229,0.624,0.406,34.960,-5.553,29.669,0.13,0.22,0.0,-139.0,23.635,91158.359,882.869,23.630,91159.960,883.365,8225,0.430,883.365,-3567218.250,23.964,1.581,0.0,0.0,0.0,3.970,0.257
8261,2,8261,36,0.126,0.934,0.416,35.331,-5.887,29.710,0.51,0.17,0.10,-132.600,-1.421,-1.363,0.765,35.501,-5.919,30.546,0.169,0.43,0.2,-139.0,23.635,91157.640,882.850,23.639,91157.632,882.616,8261,0.416,882.616,-3582462.0,-20.814,3.662,0.0,0.0,0.0,3.976,0.248
8303,2,8303,42,0.153,0.745,0.397,35.439,-5.770,30.184,0.48,0.23,0.5,-139.0,0.739,0.236,0.90,36.42,-5.480,31.233,0.15,0.7,0.0,-139.0,23.637,91158.562,882.953,23.639,91163.320,883.553,8303,0.397,883.553,-3599552.750,22.301,1.599,0.0,0.0,0.0,3.976,0.237
8339,2,8339,36,0.255,0.598,0.424,35.644,-5.548,30.564,0.13,0.7,0.2,-139.0,0.21,0.71,0.463,36.743,-5.57,31.511,0.39,0.23,0.7,-139.0,23.635,91160.578,883.145,23.630,91164.359,883.881,8339,0.424,883.881,-3614357.0,9.131,1.784,0.0,0.0,0.0,3.970,0.254
8382,2,8382,43,0.211,0.597,0.427,37.263,-4.896,31.17,0.12,0.5,0.3,-139.0,0.122,0.689,0.413,43.72,-2.470,32.125,0.39,0.25,0.10,-139.0,23.636,91162.601,883.272,23.639,91167.718,882.944,8382,0.427,882.944,-3632688.250,-21.810,3.892,0.0,0.0,0.0,3.976,0.255
8418,2,8418,36,0.33,0.542,0.391,38.783,-4.209,31.482,0.4,0.20,0.9,-132.600,0.660,0.351,0.226,42.560,-2.119,31.993,0.51,0.50,0.29,-107.0,23.637,91162.750,883.253,23.635,91160.742,883.271,8418,0.391,883.271,-3647441.0,9.99,1.785,0.0,0.0,0.0,3.976,0.234
8494,2,8494,76,0.700,-1.224,0.755,38.6,-6.670,32.110,0.270,0.272,0.42,-132.600,2.246,-4.773,-2.581,31.613,-18.225,33.688,-1.208,1.420,0.262,-139.0,23.636,91162.796,883.351,23.635,91157.890,883.108,8494,0.755,883.108,-3691024.250,-2.147,2.68,0.0,0.0,0.0,3.970,0.451
8530,2,8530,36,2.169,0.346,0.46,38.401,-9.532,32.888,0.187,0.269,0.46,-126.199,8.82,4.156,3.915,38.15,-19.789,35.121,0.401,-2.717,0.18,-107.0,23.631,91162.390,883.136,23.616,91161.250,882.475,8530,0.46,882.475,-3703787.0,-17.574,3.115,0.0,0.0,0.0,3.970,0.27
8572,2,8572,42,0.980,0.743,0.193,40.789,-12.303,34.384,0.187,0.224,0.38,-126.199,-5.965,-2.60,-1.662,48.684,-18.912,38.994,0.40,0.252,0.50,-139.0,23.630,91161.984,882.906,23.626,91162.289,882.733,8572,0.193,882.733,-3706888.500,6.129,1.844,0.0,0.0,0.0,3.963,0.115
8608,2,8608,36,0.762,0.992,0.266,42.180,-15.501,35.819,0.184,0.215,0.36,-126.199,-1.213,-1.931,0.779,50.29,-18.459,39.301,0.22,0.16,0.20,-139.0,23.628,91160.890,883.33,23.630,91162.289,883.576,8608,0.266,883.576,-3715180.500,23.432,1.587,0.0,0.0,0.0,3.963,0.159
8651,2,8651,43,0.572,0.811,0.163,43.966,-18.781,37.459,0.261,0.201,0.45,-132.600,0.287,0.552,1.926,51.490,-18.517,40.192,0.435,0.21,0.19,-139.0,23.627,91161.414,883.47,23.630,91163.320,883.342,8651,0.163,883.342,-3717399.0,-5.452,2.195,0.0,0.0,0.0,3.970,0.97
8687,2,8687,36,0.20,0.608,0.901,47.898,-18.900,38.605,0.119,0.468,0.4,-126.199,0.717,2.325,1.108,51.271,-18.824,39.418,0.501,0.85,0.10,-107.0,23.628,91161.93,882.976,23.639,91156.343,882.756,8687,0.901,882.756,-3698220.500,-16.281,2.954,0.0,0.0,0.0,3.963,0.539
8729,2,8729,42,-1.483,0.624,-1.454,50.494,-18.725,39.535,0.204,0.101,0.145,-132.600,0.768,-2.9,-7.864,50.993,-18.912,39.769,0.24,0.131,0.685,-139.0,23.634,91161.250,883.117,23.644,91162.31,883.178,8729,-1.454,883.178,-3709824.250,10.43,1.768,0.0,0.0,0.0,3.970,0.869
8771,2,8771,42,0.551,-1.214,-1.709,51.34,-18.798,39.669,0.343,0.140,0.148,-132.600,4.206,-5.10,-2.940,51.388,-19.277,39.666,0.735,0.446,0.69,-139.0,23.636,91161.406,883.224,23.635,91163.70,883.271,8771,-1.709,883.271,-3776270.0,2.229,1.937,0.0,0.0,0.0,3.970,-1.22
8807,2,8807,36,0.770,0.694,-1.683,51.300,-19.47,39.655,0.503,0.156,0.85,-132.600,0.114,0.667,0.650,51.359,-19.701,39.228,0.818,0.99,0.298,-139.0,23.637,91159.757,883.37,23.639,91154.23,882.639,8807,-1.683,882.639,-3837358.250,-17.573,3.115,0.0,0.0,0.0,3.963,-1.7
8850,2,8850,43,1.147,0.693,-2.106,51.125,-19.295,39.412,0.421,0.152,0.103,-132.600,1.593,0.559,0.183,50.613,-19.760,38.979,0.30,0.2,0.73,-139.0,23.640,91159.31,882.854,23.644,91159.703,882.428,8850,-2.106,882.428,-3918844.250,-4.904,2.172,0.0,0.0,0.0,3.976,-1.259
8886,2,8886,36,1.379,-1.493,-2.350,51.58,-19.494,39.333,0.307,0.130,0.116,-139.0,0.445,-1.672,0.111,50.935,-19.818,39.23,0.71,0.20,0.51,-139.0,23.639,91160.382,882.831,23.635,91163.70,882.639,8886,-2.350,882.639,-3999056.0,5.857,1.850,0.0,0.0,0.0,3.970,-1.405
8929,2,8929,43,1.260,0.914,0.953,51.151,-19.605,39.146,0.284,0.116,0.18,-139.0,0.172,0.882,0.879,51.461,-19.467,38.833,0.91,0.59,0.8,-139.0,23.636,91160.171,882.779,23.626,91160.992,882.920,8929,0.953,882.920,-4070077.750,6.547,1.835,0.0,0.0,0.0,3.970,0.570
8998,2,8998,69,0.341,0.812,0.440,51.49,-19.567,38.778,0.46,0.53,0.29,-139.0,0.387,3.625,0.377,50.876,-19.87,37.825,0.455,0.130,0.19,-139.0,23.635,91158.765,882.700,23.630,91156.70,882.874,8998,0.440,882.874,-4118166.250,0.666,2.20,0.0,0.0,0.0,3.970,0.263
9040,2,9040,42,0.399,0.436,0.421,50.122,-19.383,38.91,0.109,0.39,0.30,-139.0,0.172,-1.213,0.556,46.726,-18.781,35.793,0.42,0.30,0.0,-139.0,23.626,91160.312,882.747,23.598,91161.757,882.874,9040,0.421,882.874,-4136282.250,0.0,2.0,0.0,0.0,0.0,3.970,0.252
9077,2,9077,37,0.423,0.548,0.699,48.491,-19.190,36.939,0.104,0.68,0.34,-139.0,1.715,1.119,-1.569,42.458,-18.795,33.221,0.52,0.144,0.91,-139.0,23.620,91160.468,882.836,23.612,91160.468,882.874,9077,0.699,882.874,-4157022.500,0.0,2.0,0.0,0.0,0.0,3.970,0.418
9118,2,9118,41,0.752,0.770,-1.9,45.325,-18.973,34.650,0.93,0.153,0.37,-132.600,-5.434,0.559,-1.662,35.106,-18.737,27.579,0.13,0.404,0.65,-107.0,23.614,91160.203,882.944,23.607,91161.757,883.179,9118,-1.9,883.179,-4192042.500,7.428,1.817,0.0,0.0,0.0,3.970,0.603
9154,2,9154,36,0.723,0.350,0.815,42.616,-18.699,32.765,0.65,0.156,0.42,-126.199,0.315,-1.220,0.89,37.912,-18.94,29.406,0.45,0.69,0.35,-107.0,23.611,91159.226,882.982,23.607,91156.70,883.108,9154,0.815,883.108,-4224885.0,-1.963,2.62,0.0,0.0,0.0,3.976,0.487
9197,2,9197,43,0.656,0.397,0.818,40.371,-18.517,31.104,0.31,0.140,0.41,-126.199,0.50,0.114,0.391,39.652,-18.181,29.523,0.29,0.54,0.12,-139.0,23.607,91160.570,883.66,23.612,91162.796,883.296,9197,0.818,883.296,-4260008.0,4.368,1.884,0.0,0.0,0.0,3.970,0.489
9233,2,9233,36,0.746,0.188,0.785,38.669,-18.316,30.8,0.29,0.141,0.42,-126.199,0.279,0.165,0.391,38.219,-17.772,30.312,0.34,0.33,0.4,-139.0,23.609,91160.312,882.963,23.607,91160.468,882.359,9233,0.785,882.359,-4288870.500,-26.33,5.566,0.0,0.0,0.0,3.970,0.469
9275,2,9275,42,-1.116,0.430,0.545,37.708,-18.56,29.184,0.24,0.119,0.25,-126.199,0.136,0.93,0.370,37.649,-17.494,29.99,0.28,0.32,0.8,-139.0,23.610,91160.312,883.5,23.616,91160.468,883.85,9275,0.545,883.85,-4316815.0,17.306,1.658,0.0,0.0,0.0,3.963,0.326
9311,2,9311,36,0.40,0.338,0.288,37.781,-17.883,29.199,0.33,0.45,0.14,-132.600,0.50,0.100,0.377,35.472,-17.874,27.652,0.30,0.37,0.9,-139.0,23.613,91159.851,883.10,23.621,91159.437,883.202,9311,0.288,883.202,-4331826.0,3.241,1.911,0.0,0.0,0.0,3.970,0.172
9354,2,9354,43,0.304,0.54,0.236,37.68,-17.755,28.693,0.28,0.39,0.7,-139.0,2.38,0.746,0.347,34.346,-17.451,26.878,0.18,0.38,0.1,-139.0,23.613,91160.312,883.6,23.607,91158.398,883.85,9354,0.236,883.85,-4343119.500,-2.713,2.88,0.0,0.0,0.0,3.970,0.141
9390,2,9390,36,0.307,0.165,0.258,35.951,-17.556,28.85,0.30,0.35,0.7,-139.0,0.35,0.437,0.499,34.68,-17.187,26.483,0.41,0.32,0.15,-139.0,23.613,91159.585,882.902,23.612,91159.179,882.780,9390,0.258,882.780,-4352032.0,-8.475,2.340,0.0,0.0,0.0,3.970,0.154
9438,2,9438,48,0.351,0.167,0.271,35.86,-17.410,27.246,0.30,0.33,0.8,-132.600,0.57,0.150,0.456,33.893,-17.41,26.118,0.33,0.26,0.9,-107.0,23.614,91158.921,883.29,23.616,91157.109,882.991,9438,0.271,882.991,-4364742.0,4.393,1.883,0.0,0.0,0.0,3.970,0.162
9487,2,9487,49,0.346,0.149,0.272,34.410,-17.427,26.670,0.30,0.34,0.9,-126.199,0.165,0.186,0.377,34.273,-17.582,26.220,0.26,0.36,0.9,-107.0,23.614,91158.250,883.24,23.612,91157.109,883.62,9487,0.272,883.62,-4378068.500,1.442,1.958,0.0,0.0,0.0,3.970,0.163
9530,2,9530,43,0.325,0.134,0.272,34.68,-17.319,26.375,0.29,0.32,0.8,-119.800,0.150,0.172,0.377,33.762,-17.334,26.176,0.26,0.28,0.7,-107.0,23.610,91159.382,882.931,23.603,91165.117,882.734,9530,0.272,882.734,-4389794.0,-7.630,2.296,0.0,0.0,0.0,3.976,0.163
9566,2,9566,36,0.100,0.50,0.419,34.7,-17.366,26.147,0.31,0.30,0.10,-119.800,0.93,0.179,0.384,34.39,-17.684,25.738,0.29,0.29,0.9,-139.0,23.608,91159.851,883.76,23.598,91160.726,883.811,9566,0.419,883.811,-4402246.500,29.930,1.526,0.0,0.0,0.0,3.976,0.250
9608,2,9608,42,0.218,0.222,0.397,34.39,-17.398,26.129,0.28,0.26,0.6,-119.800,0.624,0.423,0.391,34.229,-17.348,26.395,0.27,0.9,0.1,-139.0,23.607,91159.898,883.193,23.607,91159.437,883.367,9608,0.397,883.367,-4419397.500,-10.591,2.465,0.0,0.0,0.0,3.970,0.237
9644,2,9644,36,0.354,0.221,0.400,34.121,-17.413,26.109,0.27,0.26,0.20,-126.199,0.739,0.143,0.470,34.302,-17.114,26.15,0.28,0.29,0.77,-139.0,23.605,91161.39,883.254,23.607,91162.796,883.296,9644,0.400,883.296,-4433762.500,-1.963,2.62,0.0,0.0,0.0,3.976,0.239
9687,2,9687,43,0.687,0.277,0.400,34.68,-17.348,26.39,0.28,0.22,0.20,-132.600,-1.830,0.466,0.377,34.10,-17.261,25.869,0.30,0.17,0.9,-139.0,23.604,91162.171,883.212,23.607,91162.796,882.851,9687,0.400,882.851,-4450982.500,-10.343,2.449,0.0,0.0,0.0,3.976,0.239
9723,2,9723,36,0.687,0.248,0.407,34.180,-17.442,26.9,0.29,0.25,0.20,-139.0,0.150,0.28,0.413,34.317,-17.801,26.30,0.28,0.41,0.7,-139.0,23.605,91161.195,883.324,23.607,91160.218,883.296,9723,0.407,883.296,-4465528.500,12.354,1.729,0.0,0.0,0.0,3.970,0.243
9765,2,9765,42,0.683,0.235,0.407,34.19,-17.360,26.47,0.30,0.23,0.20,-139.0,0.71,0.114,0.384,33.235,-17.275,25.928,0.35,0.21,0.9,-139.0,23.608,91161.148,883.118,23.612,91160.468,882.780,9765,0.407,882.780,-4482649.500,-12.272,2.582,0.0,0.0,0.0,3.970,0.243
9801,2,9801,36,0.580,0.175,0.396,33.963,-17.386,25.942,0.29,0.29,0.23,-139.0,0.107,0.122,0.334,33.952,-17.480,25.869,0.22,0.40,0.10,-139.0,23.609,91162.484,882.935,23.612,91166.156,882.452,9801,0.396,882.452,-4497118.0,-9.114,2.376,0.0,0.0,0.0,3.976,0.236
9844,2,9844,43,0.460,0.169,0.387,33.893,-17.395,25.878,0.28,0.30,0.9,-139.0,0.143,0.114,0.427,33.952,-17.158,25.694,0.27,0.31,0.10,-139.0,23.608,91162.953,882.808,23.603,91165.117,882.663,9844,0.387,882.663,-4513967.500,4.892,1.872,0.0,0.0,0.0,3.970,0.231
9880,2,9880,36,0.104,0.113,0.397,33.978,-17.421,25.825,0.28,0.33,0.8,-139.0,0.50,0.186,0.427,34.434,-17.392,25.606,0.28,0.33,0.3,-139.0,23.609,91163.882,882.832,23.612,91167.445,882.968,9880,0.397,882.968,-4528100.0,8.473,1.797,0.0,0.0,0.0,3.970,0.237
9917,2,9917,37,0.110,0.139,0.396,33.972,-17.284,25.802,0.29,0.32,0.8,-139.0,0.179,0.157,0.406,34.288,-17.114,25.913,0.31,0.34,0.7,-139.0,23.609,91163.929,882.691,23.607,91160.468,882.592,9917,0.396,882.592,-4542784.500,-10.154,2.438,0.0,0.0,0.0,3.976,0.236
9959,2,9959,42,0.117,0.142,0.404,34.218,-17.331,25.767,0.28,0.35,0.7,-139.0,0.107,0.129,0.427,34.463,-17.509,25.752,0.30,0.35,0.8,-139.0,23.609,91163.0,882.850,23.612,91155.820,883.578,9959,0.404,883.578,-4559604.0,23.475,1.586,0.0,0.0,0.0,3.970,0.242
10029,2,10029,70,0.117,0.133,0.414,34.244,-17.348,25.720,0.29,0.32,0.7,-139.0,0.107,0.78,0.384,34.83,-17.567,25.635,0.29,0.25,0.6,-139.0,23.610,91162.484,882.902,23.616,91163.554,882.711,10029,0.414,882.711,-4588289.500,-12.387,2.591,0.0,0.0,0.0,3.976,0.248
10070,2,10070,41,0.104,0.145,0.414,34.258,-17.375,25.796,0.30,0.31,0.6,-139.0,0.78,0.172,0.427,34.25,-17.290,26.74,0.31,0.29,0.7,-139.0,23.606,91161.234,882.804,23.584,91158.906,882.172,10070,0.414,882.172,-4605297.0,-13.144,2.651,0.0,0.0,0.0,3.976,0.248
10107,2,10107,37,0.114,0.124,0.406,34.130,-17.348,25.878,0.31,0.32,0.7,-139.0,0.100,0.86,0.384,33.791,-17.261,26.15,0.32,0.37,0.9,-139.0,23.600,91160.257,882.795,23.580,91162.523,882.922,10107,0.406,882.922,-4620486.0,20.265,1.621,0.0,0.0,0.0,3.970,0.242
10149,2,10149,42,0.100,0.101,0.409,34.106,-17.395,25.846,0.31,0.32,0.9,-139.0,0.107,0.43,0.420,34.171,-17.348,25.752,0.30,0.33,0.14,-139.0,23.597,91161.78,882.819,23.593,91164.593,882.711,10149,0.409,882.711,-4637607.0,-5.20,2.177,0.0,0.0,0.0,3.976,0.244
10185,2,10185,36,0.94,0.103,0.410,34.200,-17.369,25.825,0.31,0.31,0.9,-139.0,0.78,0.136,0.434,34.931,-17.377,25.650,0.33,0.32,0.7,-139.0,23.591,91162.367,882.523,23.580,91162.265,882.101,10185,0.410,882.101,-4652359.500,-16.933,3.32,0.0,0.0,0.0,3.976,0.245
10228,2,10228,43,0.91,0.116,0.416,34.194,-17.331,25.761,0.32,0.33,0.9,-139.0,0.93,0.143,0.413,34.54,-17.377,25.314,0.32,0.33,0.9,-139.0,23.586,91162.578,882.500,23.593,91164.593,882.594,10228,0.416,882.594,-4670135.0,11.464,1.744,0.0,0.0,0.0,3.976,0.248
10265,2,10265,37,0.81,0.104,0.427,34.229,-17.363,25.688,0.32,0.33,0.9,-139.0,0.28,0.114,0.485,34.200,-17.451,25.708,0.30,0.29,0.7,-139.0,23.586,91163.710,882.584,23.584,91164.593,882.594,10265,0.427,882.594,-4685749.0,0.0,2.0,0.0,0.0,0.0,3.976,0.255
10308,2,10308,43,0.83,0.100,0.432,34.276,-17.415,25.676,0.31,0.33,0.9,-139.0,0.107,0.64,0.406,34.25,-17.524,25.957,0.29,0.35,0.6,-139.0,23.588,91162.781,882.645,23.589,91157.875,883.226,10308,0.432,883.226,-4704234.500,14.699,1.693,0.0,0.0,0.0,3.976,0.258
10344,2,10344,36,0.107,0.117,0.442,34.329,-17.442,25.691,0.31,0.33,0.8,-139.0,0.229,0.129,0.470,34.434,-17.480,25.825,0.32,0.38,0.9,-139.0,23.586,91161.187,882.641,23.584,91156.585,882.688,10344,0.442,882.688,-4719969.0,-14.957,2.813,0.0,0.0,0.0,3.963,0.264
10386,2,10386,42,0.106,0.122,0.439,34.241,-17.369,25.726,0.31,0.34,0.8,-139.0,0.71,0.157,0.420,34.492,-17.12,25.825,0.33,0.33,0.9,-139.0,23.585,91161.492,883.7,23.575,91163.812,883.930,10386,0.439,883.930,-4738477.0,29.580,1.529,0.0,0.0,0.0,3.970,0.262
10422,2,10422,36,0.122,0.123,0.443,34.279,-17.331,25.799,0.31,0.34,0.8,-132.600,0.172,0.150,0.434,34.244,-17.187,25.679,0.31,0.34,0.7,-107.0,23.582,91161.546,882.941,23.580,91164.843,882.267,10422,0.443,882.267,-4754366.500,-46.210,-1.588,0.0,0.0,0.0,3.976,0.265
10465,2,10465,43,0.134,0.142,0.421,34.358,-17.196,25.825,0.31,0.35,0.8,-132.600,0.93,0.208,0.377,34.595,-16.778,25.840,0.30,0.36,0.8,-139.0,23.583,91160.664,882.955,23.589,91160.195,882.665,10465,0.421,882.665,-4772975.500,9.260,1.782,0.0,0.0,0.0,3.976,0.252
10535,2,10535,70,0.134,0.152,0.424,34.370,-17.109,25.758,0.32,0.35,0.8,-132.600,0.107,0.114,0.420,34.83,-17.85,25.621,0.31,0.35,0.7,-139.0,23.581,91162.210,882.754,23.575,91165.609,882.220,10535,0.424,882.220,-4802616.0,-6.352,2.235,0.0,0.0,0.0,3.970,0.254
10577,2,10577,42,0.137,0.166,0.414,34.209,-17.9,25.732,0.30,0.31,0.7,-126.199,0.244,0.200,0.420,33.630,-16.983,25.694,0.26,0.19,0.3,-107.0,23.574,91164.15,882.848,23.552,91165.609,883.158,10577,0.414,883.158,-4820249.500,22.327,1.598,0.0,0.0,0.0,3.963,0.248
10614,2,10614,37,0.157,0.163,0.423,34.106,-16.901,25.705,0.30,0.31,0.7,-126.199,0.172,0.143,0.463,33.981,-16.471,25.694,0.33,0.33,0.8,-139.0,23.571,91164.117,882.609,23.561,91164.320,882.736,10614,0.423,882.736,-4835757.500,-11.400,2.519,0.0,0.0,0.0,3.970,0.253
10656,2,10656,42,0.167,0.179,0.417,34.121,-16.837,25.749,0.29,0.29,0.6,-132.600,0.222,0.229,0.406,34.317,-16.866,25.898,0.27,0.24,0.6,-139.0,23.566,91163.335,882.829,23.552,91160.960,883.368,10656,0.417,883.368,-4853421.0,15.50,1.688,0.0,0.0,0.0,3.976,0.249
10698,2,10698,42,0.202,0.196,0.406,33.957,-16.895,25.691,0.30,0.28,0.6,-126.199,0.265,0.294,0.320,33.776,-17.71,25.548,0.31,0.26,0.8,-107.0,23.559,91164.625,882.759,23.557,91166.640,882.315,10698,0.406,882.315,-4870723.0,-25.79,5.38,0.0,0.0,0.0,3.963,0.242
10734,2,10734,36,0.211,0.198,0.419,33.884,-16.843,25.697,0.28,0.26,0.6,-126.199,0.150,0.122,0.485,33.718,-16.822,25.650,0.25,0.28,0.7,-139.0,23.555,91163.898,882.802,23.552,91161.992,882.431,10734,0.419,882.431,-4885579.0,3.239,1.911,0.0,0.0,0.0,3.970,0.250
10783,2,10783,49,0.202,0.208,0.401,33.905,-16.840,25.720,0.28,0.28,0.6,-132.600,0.200,0.251,0.334,33.732,-16.968,25.811,0.26,0.30,0.3,-139.0,23.555,91162.976,882.694,23.552,91160.960,882.619,10783,0.401,882.619,-4905694.0,3.835,1.896,0.0,0.0,0.0,3.963,0.240
10819,2,10819,36,0.205,0.231,0.409,33.782,-16.913,25.662,0.26,0.27,0.6,-132.600,0.186,0.258,0.499,33.367,-16.837,25.401,0.23,0.28,0.4,-139.0,23.553,91163.445,882.652,23.552,91166.640,882.525,10819,0.409,882.525,-4920291.500,-2.617,2.85,0.0,0.0,0.0,3.963,0.244
10986,2,10986,167,0.172,0.212,0.414,33.759,-16.983,25.703,0.28,0.29,0.6,-132.600,0.57,0.136,0.434,34.200,-17.217,26.103,0.34,0.33,0.6,-139.0,23.552,91164.984,882.456,23.547,91168.671,882.387,10986,0.414,882.387,-4989087.0,0.826,2.25,0.0,0.0,0.0,3.963,0.248
11266,2,11266,280,0.134,0.170,0.419,33.838,-17.53,25.825,0.28,0.29,0.6,-139.0,0.78,0.86,0.341,34.171,-17.421,26.161,0.30,0.25,0.7,-139.0,23.540,91164.242,882.489,23.497,91162.960,882.483,11266,0.419,882.483,-5105840.0,0.342,1.989,0.0,0.0,0.0,3.963,0.250
11310,2,11310,44,0.113,0.182,0.414,33.867,-17.59,25.893,0.28,0.30,0.6,-139.0,0.43,0.179,0.463,33.864,-16.851,25.986,0.29,0.34,0.9,-139.0,23.521,91164.953,882.570,23.456,91165.562,882.834,11310,0.414,882.834,-5124187.0,7.980,1.806,0.0,0.0,0.0,3.970,0.248
11346,2,11346,36,0.101,0.140,0.419,33.802,-16.965,25.828,0.29,0.30,0.7,-139.0,0.143,0.43,0.355,33.411,-16.501,25.489,0.27,0.32,0.8,-139.0,23.505,91164.851,882.598,23.474,91160.406,882.763,11346,0.419,882.763,-5139198.0,-1.978,2.63,0.0,0.0,0.0,3.970,0.250
11388,2,11388,42,0.71,0.113,0.397,33.940,-17.3,25.939,0.30,0.31,0.8,-139.0,0.35,0.122,0.391,34.54,-17.27,25.957,0.29,0.32,0.10,-139.0,23.492,91163.546,882.651,23.483,91160.156,882.786,11388,0.397,882.786,-5156349.0,0.547,1.983,0.0,0.0,0.0,3.970,0.237
11425,2,11425,37,0.74,0.101,0.384,33.937,-16.875,25.901,0.29,0.31,0.9,-139.0,0.71,0.78,0.370,34.185,-16.574,25.913,0.29,0.34,0.10,-139.0,23.480,91163.398,882.697,23.492,91167.914,882.621,11425,0.384,882.621,-5170821.0,-4.455,2.154,0.0,0.0,0.0,3.970,0.230
11467,2,11467,42,0.90,0.110,0.406,33.876,-16.767,25.793,0.28,0.31,0.9,-132.600,0.157,0.129,0.449,33.864,-16.881,25.621,0.28,0.25,0.7,-107.0,23.483,91161.859,882.767,23.511,91155.250,882.832,11467,0.406,882.832,-5187429.500,5.20,1.869,0.0,0.0,0.0,3.970,0.242
11504,2,11504,37,0.104,0.111,0.400,33.829,-16.769,25.714,0.28,0.31,0.8,-126.199,0.114,0.186,0.434,33.630,-16.866,25.591,0.28,0.34,0.5,-107.0,23.494,91160.929,882.832,23.511,91160.937,883.160,11504,0.400,883.160,-5202353.0,8.866,1.789,0.0,0.0,0.0,3.970,0.239
11557,2,11557,53,0.101,0.129,0.403,34.13,-16.837,25.793,0.29,0.32,0.8,-126.199,0.129,0.129,0.370,34.332,-16.837,25.884,0.31,0.33,0.10,-139.0,23.502,91161.296,882.659,23.511,91162.226,881.895,11557,0.403,881.895,-5223653.500,-23.872,4.523,0.0,0.0,0.0,3.976,0.241
11593,2,11593,36,0.305,0.129,0.423,34.83,-16.860,25.779,0.23,0.32,0.8,-126.199,-1.55,1.170,0.492,34.405,-17.144,25.884,0.1,0.35,0.7,-139.0,23.505,91163.312,882.630,23.502,91170.234,882.644,11593,0.423,882.644,-5238535.500,20.812,1.615,0.0,0.0,0.0,3.976,0.253
11636,2,11636,43,0.387,0.87,0.411,33.899,-17.199,25.594,0.10,0.40,0.11,-119.800,0.480,0.287,0.312,33.265,-18.269,24.992,0.39,0.73,0.29,-107.0,23.507,91161.703,882.523,23.502,91159.898,882.82,11636,0.411,882.82,-5256496.500,-13.68,2.644,0.0,0.0,0.0,3.976,0.246
11672,2,11672,36,0.720,0.60,0.404,33.729,-17.453,25.466,0.7,0.42,0.76,-119.800,-1.823,0.868,0.413,33.16,-18.152,24.978,0.15,0.33,0.330,-107.0,23.509,91163.773,882.523,23.520,91165.585,882.832,11672,0.404,882.832,-5271197.500,20.829,1.615,0.0,0.0,0.0,3.976,0.242
11714,2,11714,42,-1.33,0.20,0.489,33.747,-17.790,25.323,0.15,0.12,0.68,-126.199,-1.679,0.215,0.858,33.718,-18.547,24.875,0.68,0.237,0.32,-139.0,23.508,91163.570,882.457,23.506,91159.898,882.832,11714,0.489,882.832,-5289976.500,0.0,2.0,0.0,0.0,0.0,3.976,0.292
11750,2,11750,36,-1.201,0.321,0.470,34.332,-18.50,25.568,0.28,0.13,0.67,-119.800,0.969,1.378,0.276,37.255,-18.137,27.111,0.96,0.30,0.1,-107.0,23.508,91162.640,882.583,23.511,91157.578,882.527,11750,0.470,882.527,-5307261.500,-8.460,2.340,0.0,0.0,0.0,3.970,0.281
11793,2,11793,43,-1.32,0.50,0.429,34.945,-18.532,25.989,0.34,0.14,0.67,-119.800,0.208,0.186,0.284,37.474,-19.555,27.988,0.29,0.28,0.6,-139.0,23.512,91160.828,882.663,23.520,91161.187,883.43,11793,0.429,883.43,-5326611.500,11.987,1.735,0.0,0.0,0.0,3.976,0.256
11829,2,11829,36,0.934,0.37,0.419,35.907,-18.699,26.658,0.52,0.0,0.62,-126.199,0.7,0.351,0.262,38.73,-19.102,28.339,0.50,0.150,0.5,-139.0,23.513,91161.453,882.818,23.506,91163.7,882.854,11829,0.419,882.854,-5341881.0,-5.233,2.186,0.0,0.0,0.0,3.976,0.250
11872,2,11872,43,0.578,0.149,0.433,36.995,-19.47,27.497,0.55,0.4,0.1,-132.600,0.43,0.308,0.485,38.453,-19.891,29.172,0.32,0.51,0.10,-139.0,23.510,91160.570,882.733,23.506,91161.187,882.410,11872,0.433,882.410,-5360212.0,-10.331,2.449,0.0,0.0,0.0,3.976,0.259
11908,2,11908,36,0.259,0.96,0.376,38.94,-19.327,28.567,0.48,0.58,0.7,-132.600,0.86,0.50,0.571,39.213,-19.950,30.225,0.35,0.30,0.12,-139.0,23.511,91161.710,882.733,23.511,91165.585,882.832,11908,0.376,882.832,-5374784.0,11.717,1.739,0.0,0.0,0.0,3.976,0.224
11951,2,11951,43,0.30,0.198,0.394,38.357,-19.684,29.114,0.36,0.59,0.8,-139.0,0.179,0.93,0.370,38.570,-19.921,29.845,0.32,0.34,0.8,-139.0,23.511,91163.101,882.729,23.511,91164.554,882.503,11951,0.394,882.503,-5391355.500,-7.643,2.297,0.0,0.0,0.0,3.970,0.236
11987,2,11987,36,-1.29,-1.66,0.524,37.693,-19.134,28.681,0.5,0.47,0.21,-139.0,-5.204,-4.529,4.310,34.156,-16.807,25.825,0.124,0.506,0.70,-139.0,23.507,91164.242,882.705,23.502,91166.875,882.926,11987,0.524,882.926,-5389026.500,11.730,1.739,0.0,0.0,0.0,3.976,0.313
12029,2,12029,42,-1.148,-1.35,0.511,37.290,-18.772,28.278,0.0,0.75,0.22,-132.600,0.588,0.193,0.327,36.56,-17.290,26.322,0.23,0.14,0.7,-107.0,23.506,91163.156,882.551,23.502,91157.578,882.82,12029,0.511,882.82,-5367284.500,-20.83,3.515,0.0,0.0,0.0,3.976,0.305
12096,2,12096,67,-1.261,0.948,0.539,36.498,-18.535,27.711,0.2,0.68,0.18,-132.600,0.610,0.122,0.341,34.492,-18.707,26.337,0.18,0.85,0.4,-139.0,23.505,91164.859,882.541,23.502,91169.703,882.364,12096,0.539,882.364,-5332072.0,4.210,1.887,0.0,0.0,0.0,3.976,0.322
12137,2,12137,41,-1.167,-1.25,0.617,35.670,-18.199,26.983,0.6,0.70,0.26,-132.600,0.387,0.430,0.183,35.77,-18.269,26.585,0.79,0.19,0.48,-139.0,23.500,91163.148,882.555,23.483,91157.46,882.903,12137,0.617,882.903,-5308346.0,13.131,1.717,0.0,0.0,0.0,3.963,0.369
12173,2,12173,36,-1.437,0.756,0.690,34.887,-17.687,26.159,0.29,0.66,0.24,-132.600,-1.170,1.249,0.4,34.653,-17.363,25.723,0.150,0.51,0.0,-139.0,23.495,91162.328,882.593,23.488,91160.406,882.692,12173,0.690,882.692,-5284800.0,-5.842,2.212,0.0,0.0,0.0,3.976,0.413
12216,2,12216,43,0.766,1.704,0.437,35.33,-17.942,26.132,0.142,0.54,0.7,-132.600,-1.852,7.774,3.46,34.887,-18.79,25.694,0.441,0.441,0.87,-139.0,23.493,91160.765,882.626,23.492,91159.117,883.90,12216,0.437,883.90,-5260534.0,9.261,1.782,0.0,0.0,0.0,3.976,0.261
12252,2,12252,36,-2.84,2.154,0.643,35.363,-18.161,25.483,0.25,0.12,0.17,-139.0,-7.178,2.60,0.699,37.708,-18.386,23.78,0.563,0.222,0.41,-139.0,23.491,91162.476,882.598,23.488,91166.93,881.943,12252,0.643,881.943,-5241071.0,-31.875,23.866,0.0,0.0,0.0,3.976,0.384
12294,2,12294,42,-1.968,1.903,0.621,36.486,-17.667,24.334,0.48,0.42,0.23,-139.0,0.28,-1.134,0.449,40.105,-16.237,20.593,0.134,0.66,0.34,-139.0,23.492,91162.421,882.533,23.506,91169.453,882.37,12294,0.621,882.37,-5214505.500,2.229,1.937,0.0,0.0,0.0,3.970,0.371
12330,2,12330,36,-1.906,2.139,0.166,37.494,-17.293,22.917,0.98,0.52,0.42,-139.0,0.696,0.746,-2.459,40.119,-16.398,19.497,0.330,0.26,0.45,-139.0,23.493,91162.218,882.444,23.492,91156.15,882.458,12330,0.166,882.458,-5200314.500,11.715,1.739,0.0,0.0,0.0,3.976,0.99
12373,2,12373,43,-1.916,1.995,0.205,39.38,-17.170,21.648,0.89,0.44,0.34,-132.600,-1.220,0.531,0.189,42.370,-16.749,19.380,0.104,0.90,0.36,-107.0,23.495,91163.140,882.439,23.497,91165.54,882.669,12373,0.205,882.669,-5192316.0,4.904,1.871,0.0,0.0,0.0,3.970,0.122
12409,2,12409,36,-1.714,0.351,0.480,40.572,-16.767,20.312,0.20,0.56,0.17,-132.600,0.839,0.445,0.384,42.560,-16.62,19.14,0.97,0.64,0.0,-139.0,23.495,91163.140,882.379,23.492,91159.117,882.786,12409,0.480,882.786,-5197274.500,3.241,1.911,0.0,0.0,0.0,3.970,0.287
12458,2,12458,49,0.305,0.209,0.700,41.496,-16.398,19.693,0.137,0.22,0.6,-132.600,0.136,1.349,0.399,42.326,-16.544,19.979,0.21,0.49,0.13,-139.0,23.496,91164.796,882.439,23.492,91174.351,882.247,12458,0.700,882.247,-5226218.500,-11.0,2.492,0.0,0.0,0.0,3.976,0.418
12494,2,12494,36,0.277,0.423,0.677,41.856,-16.407,19.406,0.113,0.47,0.2,-132.600,0.114,0.64,0.334,41.902,-16.281,19.161,0.16,0.57,0.7,-139.0,23.492,91164.390,882.500,23.483,91167.382,882.341,12494,0.677,882.341,-5251024.0,2.617,1.927,0.0,0.0,0.0,3.976,0.405
12542,2,12542,48,0.442,0.290,0.248,42.78,-16.293,19.348,0.47,0.58,0.12,-126.199,0.129,0.78,0.312,41.230,-15.828,19.204,0.4,0.27,0.3,-107.0,23.491,91166.39,882.514,23.488,91164.273,882.529,12542,0.248,882.529,-5273244.0,3.913,1.894,0.0,0.0,0.0,3.970,0.148
12609,2,12609,67,0.57,0.178,0.315,41.815,-16.188,19.289,0.7,0.57,0.3,-132.600,0.703,0.28,0.147,41.55,-16.223,19.87,0.93,0.85,0.40,-139.0,23.486,91165.101,882.538,23.474,91160.382,882.788,12609,0.315,882.788,-5292139.500,3.867,1.896,0.0,0.0,0.0,3.963,0.188
12651,2,12651,42,0.294,0.34,0.320,41.596,-15.998,19.234,0.6,0.45,0.3,-132.600,0.918,-1.507,0.406,41.464,-15.112,18.737,0.26,0.7,0.3,-139.0,23.478,91166.484,882.581,23.451,91166.70,882.999,12651,0.320,882.999,-5305492.0,5.20,1.869,0.0,0.0,0.0,3.970,0.191
12687,2,12687,36,0.436,0.578,0.927,41.707,-15.504,19.199,0.34,0.11,0.100,-132.600,0.574,4.414,-3.435,42.882,-14.74,19.804,0.226,0.235,0.536,-139.0,23.469,91164.367,882.563,23.451,91163.742,882.156,12687,0.927,882.156,-5327945.500,-23.415,4.360,0.0,0.0,0.0,3.970,0.554
12729,2,12729,42,0.446,0.722,0.920,41.496,-15.454,19.20,0.77,0.29,0.82,-132.600,0.165,0.653,0.298,40.850,-16.33,18.269,0.232,0.33,0.81,-139.0,23.465,91164.312,882.568,23.460,91167.101,882.366,12729,0.920,882.366,-5366744.0,5.7,1.869,0.0,0.0,0.0,3.963,0.550
12765,2,12765,36,0.157,1.760,0.902,41.596,-15.454,18.854,0.26,0.31,0.110,-139.0,-3.151,5.268,0.226,41.727,-15.828,18.371,0.261,0.20,0.140,-139.0,23.457,91163.70,882.456,23.447,91158.62,881.968,12765,0.902,881.968,-5399560.500,-11.60,2.496,0.0,0.0,0.0,3.970,0.539
12808,2,12808,43,0.617,1.807,-1.125,42.92,-14.843,18.851,0.53,0.19,0.130,-139.0,-1.593,0.208,-1.260,43.539,-13.168,19.73,0.44,0.143,0.58,-139.0,23.453,91164.671,882.376,23.456,91168.390,882.389,12808,-1.125,882.389,-5443172.0,9.794,1.772,0.0,0.0,0.0,3.963,0.673
12844,2,12844,36,0.851,2.152,-1.99,42.391,-14.326,19.14,0.38,0.2,0.134,-139.0,0.251,0.215,0.276,42.955,-12.525,19.555,0.50,0.94,0.17,-139.0,23.454,91164.617,882.230,23.456,91165.812,882.273,12844,-1.99,882.273,-5483224.500,-3.239,2.107,0.0,0.0,0.0,3.976,0.657
12886,2,12886,42,0.961,1.243,0.492,42.101,-14.498,18.696,0.11,0.64,0.40,-132.600,0.21,0.129,0.399,41.435,-14.937,18.211,0.21,0.97,0.69,-107.0,23.455,91164.421,882.273,23.456,91162.710,882.366,12886,0.492,882.366,-5516656.500,2.230,1.937,0.0,0.0,0.0,3.976,0.294
12922,2,12922,36,-1.32,1.161,0.519,42.125,-14.282,18.754,0.72,0.82,0.26,-126.199,0.186,0.244,0.434,40.967,-14.951,18.561,0.75,0.58,0.155,-107.0,23.450,91162.812,882.273,23.437,91159.93,882.366,12922,0.519,882.366,-5534872.0,0.0,2.0,0.0,0.0,0.0,3.970,0.310
12965,2,12965,43,0.70,0.137,0.503,42.78,-13.981,18.900,0.11,0.92,0.5,-126.199,1.658,-1.227,0.147,41.493,-14.323,19.102,0.45,0.69,0.17,-139.0,23.452,91164.210,882.455,23.456,91165.31,882.882,12965,0.503,882.882,-5556876.500,11.998,1.735,0.0,0.0,0.0,3.963,0.301
13001,2,13001,36,0.203,0.167,0.321,41.642,-14.220,18.819,0.5,0.61,0.50,-119.800,0.222,0.57,0.348,41.362,-14.367,18.664,0.74,0.11,0.167,-107.0,23.450,91163.78,882.558,23.447,91162.710,882.905,13001,0.321,882.905,-5571732.500,0.623,1.981,0.0,0.0,0.0,3.970,0.192
13043,2,13043,42,0.35,0.212,0.377,41.341,-14.568,18.602,0.30,0.35,0.47,-113.400,-1.91,2.117,0.556,41.449,-14.264,18.474,0.131,0.33,0.31,-107.0,23.448,91162.453,882.661,23.447,91162.710,882.788,13043,0.377,882.788,-5586411.500,-2.777,2.90,0.0,0.0,0.0,3.976,0.225
13091,2,13091,48,0.170,0.368,0.397,41.224,-14.735,18.646,0.13,0.33,0.132,-119.800,-1.12,0.653,0.499,40.850,-15.770,18.430,0.110,0.87,0.352,-139.0,23.447,91162.39,882.783,23.447,91160.640,882.975,13091,0.397,882.975,-5605013.500,3.902,1.895,0.0,0.0,0.0,3.970,0.237
13133,2,13133,42,0.529,-1.266,0.757,41.172,-14.828,18.862,0.74,0.94,0.91,-126.199,3.316,-7.932,-2.236,40.704,-15.419,19.643,0.511,0.363,0.48,-139.0,23.447,91162.554,882.840,23.442,91161.671,882.648,13133,0.757,882.648,-5629280.0,-7.799,2.305,0.0,0.0,0.0,3.970,0.453
13169,2,13169,36,0.18,-1.46,0.795,41.183,-14.513,18.959,0.66,0.92,0.86,-126.199,0.897,0.129,0.334,41.552,-12.744,19.584,0.84,0.54,0.5,-139.0,23.443,91163.273,882.774,23.433,91168.648,882.554,13169,0.795,882.554,-5657238.0,-2.616,2.85,0.0,0.0,0.0,3.963,0.475
13212,2,13212,43,0.0,-1.220,0.813,41.46,-14.527,19.161,0.73,0.100,0.51,-126.199,0.315,0.811,0.442,40.675,-14.440,19.672,0.37,0.28,0.7,-107.0,23.439,91162.195,882.704,23.428,91157.273,882.554,13212,0.813,882.554,-5691836.500,0.0,2.0,0.0,0.0,0.0,3.976,0.486
13248,2,13248,36,0.142,-1.576,0.782,40.923,-14.688,19.301,0.88,0.105,0.57,-132.600,0.380,0.337,0.399,40.836,-15.68,19.175,0.56,0.6,0.4,-139.0,23.437,91161.46,882.765,23.437,91157.23,883.93,13248,0.782,883.93,-5720570.0,14.972,1.690,0.0,0.0,0.0,3.963,0.467
13291,2,13291,43,0.393,-1.678,0.706,40.993,-14.425,19.429,0.80,0.87,0.44,-126.199,0.244,0.143,0.119,41.201,-14.454,19.73,0.68,0.0,0.288,-107.0,23.436,91161.515,882.554,23.442,91162.960,881.922,13291,0.706,881.922,-5752575.500,-27.234,6.465,0.0,0.0,0.0,3.970,0.422
13327,2,13327,36,0.244,0.101,0.335,40.964,-14.267,19.260,0.15,0.15,0.57,-126.199,0.129,0.50,0.384,40.558,-14.630,18.795,0.31,0.0,0.15,-139.0,23.437,91161.773,882.601,23.447,91162.960,882.882,13327,0.335,882.882,-5771334.0,26.685,1.555,0.0,0.0,0.0,3.963,0.200
13369,2,13369,42,0.103,0.110,0.334,40.970,-14.524,19.199,0.4,0.0,0.57,-119.800,0.193,0.172,0.327,41.581,-14.30,19.277,0.17,0.26,0.2,-107.0,23.438,91161.54,882.601,23.437,91165.31,882.554,13369,0.334,882.554,-5785410.0,-7.824,2.306,0.0,0.0,0.0,3.970,0.199
13405,2,13405,36,0.45,0.41,0.324,41.81,-14.451,19.49,0.18,0.14,0.74,-126.199,0.28,0.50,0.391,41.230,-14.74,18.927,0.31,0.38,0.75,-139.0,23.442,91163.273,882.502,23.447,91168.390,882.62,13405,0.324,882.62,-5797268.500,-13.663,2.694,0.0,0.0,0.0,3.976,0.193
13448,2,13448,43,0.33,0.136,0.350,41.107,-14.317,19.152,0.37,0.15,0.83,-126.199,0.315,0.552,0.528,40.967,-14.396,19.687,0.39,0.13,0.37,-139.0,23.443,91164.671,882.353,23.442,91164.0,882.343,13448,0.350,882.343,-5811772.0,6.547,1.835,0.0,0.0,0.0,3.970,0.209
13484,2,13484,36,0.142,0.232,0.419,41.277,-14.182,19.257,0.24,0.15,0.23,-126.199,0.301,0.337,0.463,42.49,-13.782,19.599,0.4,0.1,0.7,-107.0,23.443,91165.812,882.418,23.442,91168.648,882.250,13484,0.419,882.250,-5825620.0,-2.602,2.84,0.0,0.0,0.0,3.963,0.250
13526,2,13526,42,0.287,0.268,0.427,41.365,-14.168,19.310,0.14,0.7,0.16,-126.199,0.595,0.229,0.427,40.996,-14.557,19.58,0.18,0.39,0.19,-139.0,23.442,91167.203,882.352,23.442,91169.937,882.554,13526,0.427,882.554,-5843404.500,7.238,1.821,0.0,0.0,0.0,3.976,0.255
13563,2,13563,37,0.343,0.256,0.437,41.388,-14.127,19.143,0.5,0.7,0.13,-132.600,0.473,0.114,0.377,41.698,-13.826,18.444,0.30,0.48,0.16,-139.0,23.443,91166.523,882.376,23.442,91161.671,882.671,13563,0.437,882.671,-5859417.0,3.167,1.913,0.0,0.0,0.0,3.963,0.261
13637,2,13637,74,0.370,0.323,0.446,41.455,-14.241,19.163,0.14,0.27,0.1,-132.600,0.165,0.380,0.434,41.566,-14.644,19.29,0.68,0.61,0.3,-139.0,23.440,91164.875,882.587,23.433,91160.109,883.118,13637,0.446,883.118,-5892132.500,6.40,1.846,0.0,0.0,0.0,3.976,0.266
13673,2,13673,36,0.348,0.304,0.416,41.549,-14.232,19.82,0.42,0.45,0.9,-132.600,0.208,0.459,0.377,41.435,-14.352,19.277,0.99,0.74,0.1,-139.0,23.435,91164.554,882.681,23.414,91162.429,882.813,13673,0.416,882.813,-5907660.500,-8.458,2.340,0.0,0.0,0.0,3.976,0.248
13717,2,13717,44,0.238,0.172,0.371,41.476,-14.346,18.997,0.59,0.71,0.10,-139.0,0.251,0.323,0.241,41.683,-14.352,19.175,0.80,0.131,0.13,-139.0,23.430,91165.851,882.812,23.419,91175.85,882.907,13717,0.371,882.907,-5924996.500,2.127,1.939,0.0,0.0,0.0,3.976,0.222
13753,2,13753,36,0.122,0.212,0.374,41.406,-14.367,19.79,0.76,0.87,0.20,-132.600,0.14,0.430,0.442,40.646,-14.659,19.467,0.104,0.120,0.72,-107.0,23.425,91163.890,882.780,23.414,91160.109,882.391,13753,0.374,882.391,-5938431.0,-14.317,2.752,0.0,0.0,0.0,3.976,0.224
13799,2,13799,46,0.100,0.196,0.368,41.385,-14.565,19.295,0.102,0.93,0.110,-132.600,0.366,0.35,0.348,41.596,-14.820,19.526,0.158,0.82,0.467,-139.0,23.417,91163.578,882.743,23.405,91160.109,882.485,13799,0.368,882.485,-5955531.500,2.36,1.942,0.0,0.0,0.0,3.976,0.220
13835,2,13835,36,0.193,0.954,0.133,41.268,-14.679,19.435,0.81,0.120,0.281,-132.600,0.631,-4.170,0.742,40.982,-15.214,19.731,0.34,0.194,0.857,-139.0,23.413,91164.242,882.598,23.410,91163.468,882.391,13835,0.133,882.391,-5964573.0,-2.602,2.84,0.0,0.0,0.0,3.976,0.79
13879,2,13879,44,1.768,-3.0,0.259,41.686,-14.615,19.619,0.105,0.122,0.817,-126.199,9.604,-10.688,1.589,43.525,-14.30,20.198,0.218,0.84,2.678,-107.0,23.413,91165.382,882.490,23.414,91168.117,882.275,13879,0.259,882.275,-5961789.500,-2.650,2.86,0.0,0.0,0.0,3.976,0.155
13915,2,13915,36,1.408,-3.230,0.91,42.329,-14.171,19.532,0.91,0.67,1.99,-126.199,-1.550,0.825,-1.80,44.899,-12.130,18.737,0.13,0.141,1.419,-139.0,23.411,91163.62,882.490,23.410,91163.468,882.907,13915,0.91,882.907,-5955454.500,17.557,1.654,0.0,0.0,0.0,3.963,0.55
13957,2,13957,42,1.220,-3.497,0.311,43.42,-13.642,19.336,0.62,0.44,1.202,-132.600,0.954,-1.765,0.656,44.212,-12.14,18.488,0.41,0.3,0.588,-139.0,23.410,91163.312,882.574,23.410,91161.398,882.813,13957,0.311,882.813,-5946978.500,-2.229,2.71,0.0,0.0,0.0,3.976,0.186
13993,2,13993,36,1.471,-3.550,0.219,43.756,-13.75,19.52,0.49,0.19,1.363,-132.600,0.890,0.301,0.808,45.162,-11.984,18.108,0.94,0.40,1.274,-139.0,23.411,91163.54,882.766,23.410,91158.820,883.445,13993,0.219,883.445,-5937413.500,17.542,1.655,0.0,0.0,0.0,3.970,0.131
14036,2,14036,43,1.758,-2.737,0.2,44.805,-12.250,18.751,0.65,0.63,1.523,-132.600,0.803,0.107,0.341,46.229,-11.93,18.225,0.45,0.409,1.654,-139.0,23.411,91161.507,882.743,23.410,91155.710,882.275,14036,0.2,882.275,-5932625.0,-27.208,6.442,0.0,0.0,0.0,3.976,0.1
14072,2,14072,36,0.97,0.674,0.407,45.539,-11.464,18.474,0.45,0.80,1.250,-139.0,0.323,0.373,0.463,47.193,-10.99,18.810,0.116,0.172,1.312,-139.0,23.410,91159.695,882.808,23.410,91159.70,882.602,14072,0.407,882.602,-5939909.0,9.82,1.785,0.0,0.0,0.0,3.976,0.243
14146,2,14146,74,0.245,0.387,0.285,46.243,-10.929,18.491,0.63,0.118,1.95,-139.0,0.165,0.610,0.470,48.421,-9.456,18.824,0.101,0.45,0.645,-139.0,23.411,91158.921,882.841,23.414,91159.578,883.72,14146,0.285,883.72,-5965559.500,6.351,1.839,0.0,0.0,0.0,3.976,0.170
14182,2,14182,36,0.522,0.123,0.525,47.56,-10.283,18.550,0.71,0.108,1.11,-139.0,0.430,0.789,0.542,48.275,-8.783,18.781,0.1,0.44,0.167,-139.0,23.409,91158.500,882.837,23.401,91159.320,882.790,14182,0.525,882.790,-5980157.0,-7.836,2.307,0.0,0.0,0.0,3.970,0.314
14224,2,14224,42,0.311,0.178,0.459,47.842,-9.640,18.696,0.31,0.87,0.726,-139.0,0.165,0.28,0.477,49.93,-8.769,18.839,0.102,0.144,0.150,-139.0,23.407,91158.132,882.724,23.401,91157.0,882.884,14224,0.459,882.884,-6000835.500,2.255,1.936,0.0,0.0,0.0,3.976,0.274
14266,2,14266,42,0.245,0.275,-1.14,48.275,-9.158,18.883,0.13,0.12,0.394,-139.0,0.473,0.380,-3.119,48.392,-8.681,19.161,0.47,0.92,0.3,-139.0,23.406,91159.62,882.870,23.405,91160.359,883.1,14266,-1.14,883.1,-6031795.0,2.778,1.923,0.0,0.0,0.0,3.970,0.606
14302,2,14302,36,0.534,0.753,-1.70,48.716,-8.667,18.602,0.17,0.81,0.124,-139.0,-3.574,2.17,0.743,49.400,-7.643,17.407,0.38,0.169,0.35,-139.0,23.405,91159.328,883.34,23.405,91160.359,883.423,14302,-1.70,883.423,-6069341.0,11.715,1.739,0.0,0.0,0.0,3.963,0.640
14339,2,14339,37,0.693,0.627,-1.42,48.836,-8.418,18.272,0.39,0.116,0.6,-139.0,0.631,0.21,0.327,49.20,-8.213,17.173,0.5,0.130,0.8,-139.0,23.405,91159.890,882.917,23.414,91162.429,882.485,14339,-1.42,882.485,-6108434.500,-25.344,5.172,0.0,0.0,0.0,3.976,0.623
14381,2,14381,42,0.954,0.340,-1.19,48.988,-8.304,17.895,0.34,0.104,0.38,-139.0,0.875,0.646,0.427,49.35,-8.213,16.895,0.20,0.16,0.4,-139.0,23.408,91159.328,882.879,23.414,91156.492,882.602,14381,-1.19,882.602,-6151725.500,2.777,1.923,0.0,0.0,0.0,3.976,0.609
14423,2,14423,42,0.913,0.302,0.986,48.883,-8.196,17.635,0.7,0.68,0.6,-139.0,0.43,0.215,0.312,48.567,-8.228,17.538,0.33,0.34,0.8,-139.0,23.412,91159.226,882.926,23.419,91156.492,883.118,14423,0.986,883.118,-6193840.500,12.285,1.730,0.0,0.0,0.0,3.976,0.589
14459,2,14459,36,-1.144,0.219,0.456,49.155,-8.61,17.234,0.7,0.44,0.4,-139.0,0.681,0.35,0.470,49.751,-8.9,17.158,0.29,0.27,0.5,-139.0,23.415,91159.640,882.785,23.424,91162.429,882.297,14459,0.456,882.297,-6219809.0,-22.791,4.162,0.0,0.0,0.0,3.976,0.272
14496,2,14496,37,0.442,0.219,0.383,49.228,-8.167,17.185,0.21,0.7,0.3,-139.0,0.64,0.179,0.377,49.766,-8.170,17.158,0.27,0.14,0.6,-139.0,23.420,91160.7,882.729,23.428,91162.179,883.141,14496,0.383,883.141,-6235343.500,22.797,1.593,0.0,0.0,0.0,3.976,0.229
14539,2,14539,43,0.377,0.238,0.390,49.418,-8.170,17.234,0.29,0.32,0.7,-139.0,0.308,0.114,0.363,49.970,-8.228,17.421,0.36,0.65,0.11,-139.0,23.423,91159.78,882.757,23.428,91157.781,882.626,14539,0.390,882.626,-6251977.0,-11.974,2.560,0.0,0.0,0.0,3.976,0.233
14576,2,14576,37,0.229,0.137,0.374,49.429,-8.164,17.328,0.28,0.28,0.7,-139.0,0.136,0.143,0.348,49.93,-8.184,17.363,0.15,0.3,0.6,-139.0,23.425,91160.218,882.776,23.424,91162.179,882.697,14576,0.374,882.697,-6266130.0,1.910,1.945,0.0,0.0,0.0,3.963,0.224
14650,2,14650,74,0.307,0.140,0.396,49.576,-8.249,17.205,0.31,0.38,0.8,-139.0,0.344,0.229,0.420,49.298,-8.652,16.924,0.51,0.87,0.10,-139.0,23.424,91162.640,882.682,23.414,91168.617,882.650,14650,0.396,882.650,-6294649.0,0.629,2.19,0.0,0.0,0.0,3.970,0.236
14686,2,14686,36,0.256,0.192,0.378,49.429,-8.304,17.190,0.37,0.53,0.8,-139.0,0.430,0.294,0.384,49.20,-8.287,17.85,0.58,0.104,0.7,-139.0,23.417,91163.460,882.753,23.391,91166.546,882.650,14686,0.378,882.650,-6308600.500,0.0,2.0,0.0,0.0,0.0,3.976,0.226
14730,2,14730,44,0.320,0.213,0.377,49.380,-8.260,17.272,0.46,0.78,0.8,-139.0,0.380,0.287,0.370,49.517,-7.950,17.567,0.70,0.138,0.8,-139.0,23.411,91163.406,882.739,23.396,91161.898,883.72,14730,0.377,883.72,-6325242.0,9.586,1.776,0.0,0.0,0.0,3.970,0.225
14766,2,14766,36,0.323,0.235,0.325,49.201,-8.254,17.383,0.56,0.99,0.8,-139.0,0.323,0.222,0.104,49.79,-8.199,17.977,0.87,0.172,0.7,-139.0,23.403,91163.562,882.763,23.391,91158.539,882.745,14766,0.325,882.745,-6337901.500,-9.84,2.374,0.0,0.0,0.0,3.970,0.194
14808,2,14808,42,0.123,0.209,0.377,49.260,-8.251,17.880,0.65,0.92,0.7,-139.0,0.861,0.14,0.607,49.386,-8.170,19.847,0.62,0.38,0.4,-139.0,23.396,91162.523,882.796,23.387,91157.0,882.861,14808,0.377,882.861,-6352671.0,2.777,1.923,0.0,0.0,0.0,3.970,0.225
14845,2,14845,37,0.492,0.246,0.73,49.213,-8.123,18.275,0.55,0.54,0.7,-139.0,2.734,0.416,1.101,49.64,-8.9,18.897,0.3,0.105,0.8,-139.0,23.391,91161.390,882.880,23.387,91162.937,883.72,14845,0.73,883.72,-6361007.500,5.686,1.854,0.0,0.0,0.0,3.963,0.43
14887,2,14887,42,0.404,0.221,0.44,49.333,-8.6,18.468,0.44,0.22,0.5,-139.0,0.868,0.165,0.241,49.619,-7.702,18.50,0.3,0.53,0.2,-139.0,23.390,91159.523,882.983,23.387,91157.250,883.166,14887,0.44,883.166,-6363476.0,2.242,1.936,0.0,0.0,0.0,3.963,0.26
14923,2,14923,36,0.426,0.179,0.74,49.365,-8.59,18.515,0.32,0.4,0.5,-139.0,0.272,0.78,0.521,49.678,-8.213,17.801,0.9,0.3,0.9,-139.0,23.389,91159.54,882.983,23.391,91159.578,883.72,14923,0.74,883.72,-6365617.500,-2.616,2.85,0.0,0.0,0.0,3.970,0.44
14965,2,14965,42,0.417,0.156,0.156,49.424,-8.32,18.564,0.18,0.35,0.6,-139.0,0.366,0.107,0.513,49.371,-8.67,18.225,0.18,0.17,0.10,-139.0,23.389,91159.937,883.7,23.391,91162.937,882.861,14965,0.156,882.861,-6370467.500,-5.9,2.176,0.0,0.0,0.0,3.963,0.93
15001,2,15001,36,0.186,0.167,0.123,49.505,-8.32,18.202,0.10,0.22,0.6,-139.0,0.294,0.71,0.442,49.795,-8.170,18.35,0.23,0.25,0.8,-139.0,23.389,91161.390,883.67,23.387,91164.226,883.166,15001,0.123,883.166,-6375503.500,8.460,1.797,0.0,0.0,0.0,3.963,0.73
15044,2,15044,43,0.447,0.94,0.424,49.619,-8.88,18.56,0.17,0.6,0.6,-139.0,0.437,0.50,0.406,49.634,-8.287,18.167,0.31,0.37,0.8,-139.0,23.390,91160.85,882.979,23.391,91156.468,882.628,15044,0.424,882.628,-6387291.0,-12.522,2.601,0.0,0.0,0.0,3.963,0.254
15080,2,15080,36,0.358,0.119,0.472,49.514,-8.143,18.0,0.27,0.32,0.9,-139.0,0.423,0.287,0.477,49.93,-7.980,17.772,0.54,0.77,0.10,-139.0,23.390,91161.23,882.936,23.387,91161.898,882.955,15080,0.472,882.955,-6403439.0,9.99,1.785,0.0,0.0,0.0,3.976,0.282
15138,2,15138,58,0.347,0.134,0.442,49.371,-8.146,17.974,0.36,0.50,0.9,-139.0,0.215,0.157,0.370,48.962,-8.228,17.670,0.54,0.94,0.7,-139.0,23.389,91159.929,882.909,23.387,91154.140,882.933,15138,0.442,882.933,-6429955.0,0.387,2.11,0.0,0.0,0.0,3.970,0.264
15174,2,15174,36,0.324,0.124,0.417,49.266,-8.307,17.930,0.45,0.68,0.9,-139.0,0.251,0.57,0.391,48.845,-8.871,18.6,0.61,0.106,0.10,-139.0,23.386,91159.773,882.862,23.378,91162.148,882.628,15174,0.417,882.628,-6445431.500,-8.475,2.340,0.0,0.0,0.0,3.976,0.249
15218,2,15218,44,0.5,0.64,0.421,49.90,-8.240,17.947,0.43,0.71,0.8,-139.0,1.299,0.229,0.463,48.918,-7.833,18.123,0.14,0.40,0.5,-139.0,23.385,91157.968,882.899,23.382,91155.179,883.354,15218,0.421,883.354,-6463904.500,16.508,1.668,0.0,0.0,0.0,3.963,0.252
15254,2,15254,36,-1.216,0.315,0.660,48.915,-8.234,18.18,0.35,0.15,0.5,-139.0,-6.489,1.852,-1.597,48.757,-8.257,18.517,0.7,0.243,0.62,-139.0,23.383,91158.382,883.3,23.382,91158.539,883.144,15254,0.660,883.144,-6483386.500,-5.844,2.212,0.0,0.0,0.0,3.970,0.394
15296,2,15296,42,-1.149,0.403,0.620,48.865,-8.211,18.56,0.27,0.2,0.7,-139.0,0.93,0.150,0.276,48.845,-7.863,17.962,0.14,0.15,0.0,-139.0,23.383,91156.789,883.3,23.387,91153.890,882.955,15296,0.620,882.955,-6510276.0,-4.486,2.155,0.0,0.0,0.0,3.963,0.370
15332,2,15332,36,-1.174,0.426,0.622,48.941,-8.158,18.108,0.22,0.13,0.7,-139.0,0.337,0.43,0.384,49.342,-7.965,17.933,0.28,0.12,0.7,-139.0,23.385,91155.796,883.110,23.396,91149.242,883.471,15332,0.622,883.471,-6532652.0,14.333,1.699,0.0,0.0,0.0,3.970,0.372
15375,2,15375,43,-1.200,0.426,0.638,48.976,-7.927,18.50,0.16,0.29,0.8,-139.0,0.380,0.57,0.470,49.20,-7.717,17.714,0.29,0.26,0.4,-139.0,23.387,91156.468,883.176,23.387,91165.507,882.955,15375,0.638,882.955,-6559780.500,-11.999,2.562,0.0,0.0,0.0,3.970,0.381
15411,2,15411,36,-1.514,0.340,0.627,49.3,-7.994,18.29,0.20,0.29,0.8,-139.0,0.272,0.200,0.406,49.49,-8.170,18.21,0.37,0.42,0.8,-139.0,23.389,91155.78,883.77,23.391,91148.210,882.861,15411,0.627,882.861,-6582570.0,-2.602,2.84,0.0,0.0,0.0,3.970,0.375
15453,2,15453,42,0.279,0.78,0.388,49.9,-8.41,17.898,0.31,0.31,0.5,-139.0,0.315,0.244,0.406,48.786,-8.491,17.860,0.45,0.58,0.5,-139.0,23.389,91155.289,883.82,23.382,91159.578,883.166,15453,0.388,883.166,-6603912.0,7.251,1.821,0.0,0.0,0.0,3.970,0.232
15489,2,15489,36,0.327,0.155,0.406,49.52,-8.111,17.947,0.38,0.45,0.6,-139.0,0.330,0.229,0.363,49.64,-8.213,18.211,0.50,0.86,0.7,-139.0,23.391,91155.953,883.189,23.396,91157.250,883.494,15489,0.406,883.494,-6618225.500,9.99,1.785,0.0,0.0,0.0,3.963,0.242
15532,2,15532,43,0.132,0.287,0.378,48.968,-8.260,18.79,0.36,0.46,0.6,-139.0,0.638,0.703,0.248,48.918,-8.710,18.591,0.18,0.17,0.7,-139.0,23.390,91157.359,883.171,23.391,91156.218,883.376,15532,0.378,883.376,-6635106.0,-2.725,2.89,0.0,0.0,0.0,3.976,0.226
15568,2,15568,36,0.244,0.278,0.373,48.956,-8.456,18.155,0.30,0.41,0.7,-139.0,0.940,0.14,0.442,48.962,-8.696,18.94,0.3,0.2,0.9,-139.0,23.390,91156.171,883.292,23.387,91159.578,883.565,15568,0.373,883.565,-6648644.0,5.233,1.864,0.0,0.0,0.0,3.970,0.223
15611,2,15611,43,0.284,0.236,0.387,48.839,-8.506,18.123,0.27,0.36,0.8,-139.0,0.473,0.7,0.477,48.465,-8.418,17.860,0.20,0.19,0.11,-139.0,23.390,91158.703,883.372,23.391,91160.867,883.260,15611,0.387,883.260,-6664999.500,-7.95,2.270,0.0,0.0,0.0,3.963,0.231
15680,2,15680,69,0.291,0.244,0.378,49.20,-8.623,18.228,0.27,0.33,0.8,-139.0,0.351,0.279,0.363,49.693,-9.76,18.386,0.42,0.43,0.5,-139.0,23.391,91158.328,883.358,23.387,91157.757,883.98,15680,0.378,883.98,-6691443.0,-2.350,2.75,0.0,0.0,0.0,3.976,0.226
15721,2,15721,41,0.287,0.251,0.387,48.950,-8.745,18.272,0.26,0.30,0.8,-139.0,0.308,0.265,0.406,48.713,-8.827,18.430,0.45,0.70,0.6,-139.0,23.385,91157.554,883.73,23.369,91153.359,882.67,15721,0.387,882.67,-6707155.500,-25.142,5.69,0.0,0.0,0.0,3.970,0.231
15757,2,15757,36,0.312,0.166,0.410,48.912,-8.710,18.167,0.27,0.32,0.8,-139.0,0.509,0.279,0.363,48.728,-8.535,18.64,0.24,0.26,0.11,-139.0,23.380,91157.187,883.22,23.369,91154.398,883.120,15757,0.410,883.120,-6721520.500,29.257,1.532,0.0,0.0,0.0,3.976,0.245
15800,2,15800,43,0.188,0.256,0.406,48.813,-8.646,18.275,0.28,0.35,0.8,-139.0,0.315,0.466,0.420,48.465,-8.374,18.634,0.12,0.16,0.9,-139.0,23.377,91156.875,882.891,23.369,91158.7,882.910,15800,0.406,882.910,-6739080.0,-4.891,2.171,0.0,0.0,0.0,3.976,0.242
15836,2,15836,36,0.163,0.267,0.406,48.971,-8.696,18.333,0.29,0.38,0.8,-139.0,0.351,0.43,0.477,49.254,-8.667,18.152,0.24,0.37,0.8,-139.0,23.375,91155.789,882.886,23.382,91155.429,883.237,15836,0.406,883.237,-6753703.500,9.84,1.785,0.0,0.0,0.0,3.970,0.242
15879,2,15879,43,0.156,0.212,0.413,48.792,-8.567,18.301,0.27,0.40,0.8,-139.0,0.315,0.7,0.399,48.801,-8.433,18.225,0.32,0.53,0.7,-139.0,23.374,91155.328,882.811,23.382,91155.429,882.722,15879,0.413,882.722,-6771324.500,-11.961,2.559,0.0,0.0,0.0,3.976,0.247
15916,2,15916,37,0.41,0.101,0.421,48.769,-8.555,18.254,0.26,0.39,0.9,-139.0,0.265,0.287,0.449,48.596,-8.769,18.196,0.40,0.62,0.11,-139.0,23.377,91155.953,883.45,23.382,91156.468,883.237,15916,0.421,883.237,-6786779.0,13.901,1.705,0.0,0.0,0.0,3.976,0.252
15959,2,15959,43,0.236,0.43,0.436,48.751,-8.591,18.231,0.27,0.36,0.8,-139.0,0.466,0.14,0.434,48.640,-8.710,17.947,0.25,0.14,0.6,-139.0,23.379,91155.953,883.50,23.378,91154.398,883.144,15959,0.436,883.144,-6805233.500,-2.166,2.69,0.0,0.0,0.0,3.976,0.260
15996,2,15996,37,0.259,0.37,0.430,48.859,-8.743,18.126,0.31,0.41,0.8,-139.0,0.430,0.64,0.391,49.6,-9.134,18.108,0.36,0.37,0.9,-139.0,23.382,91154.250,883.139,23.387,91149.500,883.354,15996,0.430,883.354,-6821272.500,5.686,1.854,0.0,0.0,0.0,3.976,0.257
16037,2,16037,41,0.195,0.45,0.410,48.880,-8.667,18.140,0.34,0.43,0.8,-139.0,0.28,0.0,0.377,49.356,-8.287,18.225,0.39,0.49,0.8,-139.0,23.381,91154.203,883.120,23.378,91155.179,883.144,16037,0.410,883.144,-6838515.500,-5.131,2.181,0.0,0.0,0.0,3.970,0.245
16073,2,16073,36,0.183,0.41,0.423,48.991,-8.678,18.140,0.33,0.34,0.8,-139.0,0.258,0.28,0.463,49.356,-8.491,18.225,0.27,0.8,0.6,-139.0,23.380,91154.406,883.167,23.378,91156.468,882.955,16073,0.423,882.955,-6853526.500,-5.233,2.186,0.0,0.0,0.0,3.976,0.253
16116,2,16116,43,0.304,0.28,0.439,49.137,-8.675,18.47,0.33,0.27,0.7,-139.0,0.337,0.64,0.528,49.327,-8.754,17.728,0.36,0.26,0.3,-139.0,23.380,91154.406,883.251,23.378,91156.468,883.659,16116,0.439,883.659,-6872074.0,16.370,1.670,0.0,0.0,0.0,3.976,0.262
16184,2,16184,68,0.206,0.70,0.410,49.304,-8.626,17.971,0.33,0.31,0.8,-132.600,0.21,0.193,0.291,49.473,-8.462,17.567,0.27,0.36,0.13,-107.0,23.380,91154.867,883.331,23.382,91156.718,883.542,16184,0.410,883.542,-6900965.500,-1.724,2.54,0.0,0.0,0.0,3.976,0.245
16226,2,16226,42,0.166,0.104,0.413,49.310,-8.532,17.985,0.31,0.29,0.7,-132.600,0.229,0.236,0.406,49.35,-8.667,18.181,0.26,0.26,0.4,-139.0,23.376,91157.31,883.261,23.364,91160.328,883.3,16226,0.413,883.3,-6918267.500,-12.820,2.624,0.0,0.0,0.0,3.976,0.247
16262,2,16262,36,0.215,0.117,0.420,49.181,-8.705,17.962,0.29,0.28,0.7,-132.600,0.272,0.64,0.413,48.713,-9.149,18.108,0.30,0.45,0.10,-139.0,23.373,91157.335,883.256,23.364,91156.718,883.120,16262,0.420,883.120,-6933278.500,3.239,1.911,0.0,0.0,0.0,3.970,0.251
16304,2,16304,42,0.175,0.117,0.410,49.137,-8.716,17.892,0.29,0.32,0.7,-132.600,0.57,0.28,0.413,49.137,-8.550,17.874,0.24,0.29,0.5,-139.0,23.371,91157.140,883.350,23.369,91155.429,883.425,16304,0.410,883.425,-6950731.0,7.251,1.821,0.0,0.0,0.0,3.976,0.245
16340,2,16340,36,0.163,0.116,0.394,49.114,-8.675,17.901,0.27,0.32,0.8,-132.600,0.279,0.57,0.449,49.210,-8.550,17.772,0.29,0.25,0.7,-139.0,23.370,91157.132,883.223,23.373,91156.468,883.26,16340,0.394,883.26,-6965225.0,-11.60,2.496,0.0,0.0,0.0,3.976,0.236
16383,2,16383,43,0.179,0.101,0.423,48.976,-8.664,18.15,0.28,0.34,0.7,-139.0,0.57,0.122,0.434,48.786,-8.403,18.137,0.30,0.46,0.9,-139.0,23.368,91157.601,883.120,23.369,91159.46,883.26,16383,0.423,883.26,-6982815.500,0.0,2.0,0.0,0.0,0.0,3.976,0.253
16419,2,16419,36,0.189,0.68,0.436,49.38,-8.667,18.35,0.28,0.33,0.7,-139.0,0.279,0.71,0.470,49.342,-8.681,18.284,0.27,0.22,0.7,-139.0,23.369,91157.757,883.167,23.369,91161.117,883.237,16419,0.436,883.237,-6998292.0,5.842,1.850,0.0,0.0,0.0,3.976,0.260
16466,2,16466,47,0.152,0.61,0.442,49.248,-8.547,18.44,0.28,0.31,0.7,-139.0,0.86,0.28,0.442,49.766,-8.550,18.152,0.29,0.35,0.5,-139.0,23.372,91158.171,883.378,23.382,91158.789,884.175,16466,0.442,884.175,-7018935.500,19.954,1.625,0.0,0.0,0.0,3.970,0.264
16502,2,16502,36,0.179,0.63,0.462,49.336,-8.599,18.64,0.29,0.30,0.7,-139.0,0.193,0.35,0.513,49.576,-8.813,17.977,0.30,0.23,0.9,-139.0,23.372,91158.843,883.275,23.369,91158.789,882.910,16502,0.462,882.910,-7035213.0,-35.135,-17.492,0.0,0.0,0.0,3.970,0.276
16546,2,16546,44,0.165,0.64,0.465,49.289,-8.646,18.167,0.30,0.33,0.8,-139.0,0.208,0.64,0.463,48.976,-8.783,18.284,0.34,0.37,0.10,-139.0,23.372,91160.703,883.354,23.373,91165.765,883.425,16546,0.465,883.425,-7055613.0,11.702,1.740,0.0,0.0,0.0,3.976,0.278
16582,2,16582,36,0.176,0.40,0.469,49.315,-8.705,18.190,0.30,0.28,0.7,-139.0,0.114,0.0,0.456,48.918,-8.696,18.254,0.32,0.21,0.4,-139.0,23.371,91160.906,883.228,23.364,91160.78,882.394,16582,0.469,882.394,-7072433.0,-28.635,8.95,0.0,0.0,0.0,3.970,0.280
16625,2,16625,43,0.183,0.47,0.459,49.52,-8.655,18.38,0.31,0.29,0.8,-139.0,0.315,0.107,0.420,48.26,-8.433,17.524,0.29,0.31,0.10,-139.0,23.372,91159.820,883.181,23.373,91155.687,883.3,16625,0.459,883.3,-7092400.0,14.178,1.701,0.0,0.0,0.0,3.976,0.274
16694,2,16694,69,0.208,0.61,0.449,48.722,-8.646,18.38,0.31,0.28,0.8,-139.0,0.208,0.100,0.391,48.114,-8.506,18.152,0.31,0.30,0.5,-139.0,23.369,91158.632,882.872,23.369,91152.828,882.630,16694,0.449,882.630,-7123747.0,-5.406,2.193,0.0,0.0,0.0,3.963,0.268
16735,2,16735,41,0.193,0.80,0.430,48.488,-8.585,18.82,0.33,0.31,0.7,-139.0,0.122,0.129,0.420,48.406,-8.506,18.196,0.37,0.35,0.7,-139.0,23.365,91158.359,882.877,23.346,91157.476,882.935,16735,0.430,882.935,-7141785.0,7.441,1.817,0.0,0.0,0.0,3.970,0.257
16771,2,16771,36,0.178,0.78,0.419,48.272,-8.582,18.12,0.31,0.29,0.7,-139.0,0.129,0.57,0.406,47.895,-8.769,17.933,0.29,0.31,0.11,-139.0,23.358,91157.835,882.803,23.341,91163.156,883.52,16771,0.419,883.52,-7157080.500,3.224,1.911,0.0,0.0,0.0,3.963,0.250
16814,2,16814,43,0.196,0.111,0.393,48.222,-8.541,18.105,0.31,0.32,0.8,-139.0,0.208,0.165,0.327,48.669,-8.491,18.722,0.31,0.33,0.6,-139.0,23.356,91156.859,882.958,23.350,91155.148,883.168,16814,0.393,883.168,-7174547.500,2.713,1.924,0.0,0.0,0.0,3.963,0.235
16850,2,16850,36,0.162,0.119,0.380,48.433,-8.450,18.266,0.31,0.32,0.7,-139.0,0.143,0.143,0.355,49.79,-7.980,18.327,0.29,0.34,0.3,-139.0,23.350,91155.828,882.991,23.346,91150.507,883.168,16850,0.380,883.168,-7188473.0,0.0,2.0,0.0,0.0,0.0,3.963,0.227
16892,2,16892,42,0.149,0.124,0.381,48.412,-8.357,18.193,0.31,0.33,0.7,-139.0,0.143,0.129,0.399,48.12,-8.38,17.787,0.30,0.35,0.5,-139.0,23.346,91156.234,883.159,23.346,91154.898,883.473,16892,0.381,883.473,-7204478.500,7.251,1.821,0.0,0.0,0.0,3.963,0.228
16928,2,16928,36,0.152,0.134,0.400,48.325,-8.260,18.211,0.29,0.33,0.7,-132.600,0.136,0.179,0.513,47.968,-8.23,18.284,0.29,0.33,0.9,-107.0,23.346,91155.46,883.229,23.346,91151.539,883.285,16928,0.400,883.285,-7218559.500,-5.218,2.185,0.0,0.0,0.0,3.963,0.239
16971,2,16971,43,0.160,0.139,0.403,48.380,-8.137,18.278,0.29,0.34,0.6,-132.600,0.172,0.78,0.420,48.173,-8.155,18.269,0.26,0.32,0.5,-139.0,23.348,91154.328,883.313,23.355,91159.546,883.473,16971,0.403,883.473,-7235841.0,4.368,1.884,0.0,0.0,0.0,3.970,0.241
17008,2,17008,37,0.153,0.147,0.424,48.281,-8.50,18.85,0.28,0.33,0.5,-132.600,0.172,0.208,0.434,48.173,-8.53,17.757,0.28,0.33,0.4,-139.0,23.349,91154.742,883.337,23.355,91157.226,883.285,17008,0.424,883.285,-7251163.0,-5.77,2.179,0.0,0.0,0.0,3.970,0.254
17049,2,17049,41,0.169,0.150,0.433,48.94,-8.108,17.994,0.29,0.33,0.7,-132.600,0.222,0.157,0.399,48.143,-8.272,17.874,0.29,0.33,0.9,-139.0,23.350,91155.109,883.337,23.350,91152.328,883.168,17049,0.433,883.168,-7268759.500,-2.846,2.93,0.0,0.0,0.0,3.970,0.259
17085,2,17085,36,0.182,0.142,0.450,48.222,-8.173,18.143,0.29,0.33,0.7,-132.600,0.208,0.86,0.485,48.655,-8.360,18.532,0.31,0.32,0.9,-139.0,23.351,91155.570,883.421,23.350,91157.226,883.895,17085,0.450,883.895,-7284675.0,20.177,1.622,0.0,0.0,0.0,3.970,0.269
17129,2,17129,44,0.188,0.117,0.423,48.228,-8.228,18.173,0.29,0.32,0.7,-139.0,0.165,0.57,0.377,47.997,-8.301,18.430,0.31,0.32,0.10,-139.0,23.353,91156.765,883.417,23.355,91157.476,883.262,17129,0.423,883.262,-7303906.500,-14.366,2.757,0.0,0.0,0.0,3.970,0.253
17177,2,17177,48,0.173,0.124,0.433,48.216,-8.319,18.117,0.30,0.32,0.8,-139.0,0.100,0.114,0.470,48.114,-8.608,17.991,0.29,0.31,0.9,-139.0,23.351,91156.343,883.393,23.346,91157.476,883.357,17177,0.433,883.357,-7324472.500,1.962,1.944,0.0,0.0,0.0,3.963,0.259
17219,2,17219,42,0.163,0.100,0.411,48.208,-8.327,18.199,0.30,0.32,0.10,-139.0,0.122,0.86,0.327,48.129,-8.97,18.167,0.28,0.34,0.11,-139.0,23.349,91155.921,883.366,23.346,91155.148,883.146,17219,0.411,883.146,-7342226.500,-5.20,2.177,0.0,0.0,0.0,3.970,0.246
17255,2,17255,36,0.163,0.77,0.423,48.190,-8.330,18.377,0.29,0.32,0.10,-139.0,0.222,0.43,0.456,48.56,-8.287,18.766,0.28,0.31,0.9,-139.0,23.347,91157.632,883.319,23.341,91160.835,882.935,17255,0.423,882.935,-7357263.500,-5.842,2.212,0.0,0.0,0.0,3.970,0.253
17298,2,17298,43,0.163,0.100,0.410,48.99,-8.260,18.333,0.29,0.32,0.10,-139.0,0.208,0.200,0.420,48.202,-8.9,18.313,0.28,0.32,0.9,-139.0,23.346,91157.476,883.188,23.346,91156.437,883.239,17298,0.410,883.239,-7375193.500,7.70,1.825,0.0,0.0,0.0,3.963,0.245
17334,2,17334,36,0.159,0.114,0.411,48.111,-8.251,18.287,0.28,0.31,0.9,-139.0,0.143,0.129,0.384,48.56,-8.257,18.196,0.27,0.28,0.5,-139.0,23.344,91156.757,883.188,23.341,91153.867,883.262,17334,0.411,883.262,-7389998.0,0.639,1.981,0.0,0.0,0.0,3.970,0.246
17376,2,17376,42,0.179,0.119,0.404,48.178,-8.152,18.287,0.28,0.31,0.9,-139.0,0.200,0.136,0.434,48.450,-8.111,17.991,0.29,0.31,0.11,-139.0,23.344,91156.960,883.85,23.346,91158.515,882.841,17376,0.404,882.841,-7407149.0,-10.30,2.430,0.0,0.0,0.0,3.970,0.242
17412,2,17412,36,0.180,0.126,0.427,48.289,-8.187,18.231,0.28,0.31,0.9,-139.0,0.129,0.122,0.442,48.684,-8.272,17.889,0.29,0.31,0.10,-139.0,23.342,91156.914,883.108,23.336,91154.898,883.262,17412,0.427,883.262,-7422134.0,11.701,1.740,0.0,0.0,0.0,3.970,0.255
17455,2,17455,43,0.256,0.894,0.991,48.433,-8.211,18.295,0.26,0.28,0.8,-139.0,0.602,5.60,-3.277,48.772,-8.403,19.87,0.18,0.19,0.7,-139.0,23.344,91156.453,883.108,23.350,91158.515,882.935,17455,0.991,882.935,-7452658.0,-7.605,2.295,0.0,0.0,0.0,3.963,0.593
17491,2,17491,36,0.254,0.924,0.971,48.687,-8.222,18.167,0.27,0.28,0.8,-139.0,0.193,0.50,0.320,49.473,-8.67,17.670,0.30,0.33,0.8,-139.0,23.344,91155.46,883.155,23.346,91149.468,883.473,17491,0.971,883.473,-7488007.0,14.926,1.690,0.0,0.0,0.0,3.963,0.581
17533,2,17533,42,0.267,0.921,0.964,48.827,-8.225,18.123,0.27,0.29,0.8,-139.0,0.208,0.143,0.348,48.757,-8.272,17.977,0.29,0.29,0.3,-139.0,23.345,91153.921,883.155,23.346,91148.179,883.262,17533,0.964,883.262,-7528675.0,-5.7,2.176,0.0,0.0,0.0,3.963,0.576
17569,2,17569,36,0.261,0.915,0.979,48.994,-8.237,18.184,0.27,0.29,0.7,-132.600,0.172,0.165,0.506,49.283,-8.170,18.298,0.30,0.32,0.7,-107.0,23.344,91155.515,883.239,23.341,91166.515,883.262,17569,0.979,883.262,-7563662.500,0.0,2.0,0.0,0.0,0.0,3.963,0.585
17612,2,17612,43,0.271,0.928,0.964,49.14,-8.316,18.234,0.28,0.30,0.7,-132.600,0.179,0.57,0.370,48.786,-8.667,18.137,0.30,0.35,0.12,-139.0,23.345,91156.453,883.159,23.341,91159.546,882.864,17612,0.964,882.864,-7605453.0,-9.274,2.385,0.0,0.0,0.0,3.963,0.576
17649,2,17649,37,0.200,0.103,0.380,49.128,-8.354,18.64,0.31,0.32,0.8,-132.600,0.251,0.100,0.355,49.342,-8.593,18.240,0.34,0.31,0.10,-139.0,23.344,91155.515,883.206,23.346,91153.867,883.168,17649,0.380,883.168,-7630336.500,8.231,1.801,0.0,0.0,0.0,3.970,0.227
17730,2,17730,81,0.198,0.100,0.399,49.131,-8.444,18.129,0.30,0.31,0.8,-132.600,0.179,0.35,0.413,49.488,-8.520,17.991,0.30,0.29,0.5,-139.0,23.345,91156.960,883.174,23.350,91156.695,883.311,17730,0.399,883.311,-7661902.0,1.758,1.949,0.0,0.0,0.0,3.976,0.238
17766,2,17766,36,0.183,0.101,0.421,49.234,-8.471,18.135,0.31,0.32,0.9,-132.600,0.136,0.150,0.463,49.269,-8.403,18.6,0.31,0.32,0.8,-139.0,23.340,91158.664,883.127,23.323,91156.695,883.29,17766,0.421,883.29,-7676680.500,-7.836,2.307,0.0,0.0,0.0,3.976,0.252
17814,2,17814,48,0.193,0.83,0.388,49.289,-8.561,18.70,0.31,0.32,0.9,-139.0,0.222,0.71,0.341,49.561,-8.623,17.977,0.31,0.33,0.8,-139.0,23.338,91157.164,883.117,23.332,91159.15,883.216,17814,0.388,883.216,-7696144.0,3.913,1.894,0.0,0.0,0.0,3.976,0.232
17850,2,17850,36,0.211,0.78,0.419,49.348,-8.620,18.99,0.32,0.31,0.7,-139.0,0.265,0.35,0.521,49.79,-8.959,18.284,0.33,0.31,0.4,-139.0,23.337,91156.335,883.127,23.336,91155.406,882.912,17850,0.419,882.912,-7710690.0,-8.460,2.340,0.0,0.0,0.0,3.976,0.250
17894,2,17894,44,0.199,0.68,0.440,49.307,-8.611,18.12,0.31,0.31,0.6,-139.0,0.193,0.50,0.463,49.137,-8.550,17.801,0.32,0.32,0.7,-139.0,23.335,91157.312,883.62,23.336,91158.765,882.841,17894,0.440,882.841,-7729605.500,-1.606,2.50,0.0,0.0,0.0,3.976,0.263
17930,2,17930,36,0.211,0.78,0.432,49.263,-8.658,17.988,0.32,0.32,0.6,-139.0,0.236,0.86,0.370,49.269,-8.754,17.874,0.33,0.32,0.4,-139.0,23.334,91155.859,883.5,23.341,91149.468,883.29,17930,0.432,883.29,-7745314.500,5.204,1.864,0.0,0.0,0.0,3.976,0.258
17972,2,17972,42,0.211,0.63,0.429,49.277,-8.769,17.968,0.31,0.32,0.6,-139.0,0.136,0.71,0.449,49.342,-8.959,17.904,0.26,0.32,0.8,-139.0,23.336,91156.960,882.926,23.336,91162.125,882.630,17972,0.429,882.630,-7763400.500,-9.482,2.397,0.0,0.0,0.0,3.970,0.256
18008,2,18008,36,0.200,0.74,0.433,49.155,-8.745,17.991,0.31,0.33,0.6,-132.600,0.172,0.129,0.363,48.947,-8.506,18.94,0.32,0.36,0.9,-107.0,23.337,91156.179,882.851,23.336,91155.148,882.841,18008,0.433,882.841,-7778928.500,5.857,1.850,0.0,0.0,0.0,3.970,0.259
18051,2,18051,43,0.196,0.109,0.390,49.85,-8.687,17.892,0.30,0.32,0.7,-132.600,0.244,0.208,0.305,48.728,-8.667,17.787,0.29,0.30,0.10,-139.0,23.340,91155.921,882.982,23.350,91154.117,883.568,18051,0.390,883.568,-7796642.500,16.892,1.663,0.0,0.0,0.0,3.970,0.233
18087,2,18087,36,0.202,0.106,0.386,49.11,-8.623,17.883,0.31,0.32,0.6,-132.600,0.222,0.35,0.442,48.772,-8.228,17.757,0.35,0.30,0.0,-139.0,23.340,91154.484,883.1,23.336,91151.539,882.935,18087,0.386,882.935,-7810620.0,-17.559,3.113,0.0,0.0,0.0,3.976,0.230
18129,2,18129,42,0.192,0.91,0.410,48.944,-8.643,17.857,0.30,0.32,0.7,-132.600,0.186,0.14,0.492,48.933,-8.857,17.743,0.29,0.33,0.8,-139.0,23.340,91154.945,883.28,23.341,91151.789,883.168,18129,0.410,883.168,-7827349.0,5.542,1.857,0.0,0.0,0.0,3.976,0.245
18166,2,18166,37,0.221,0.104,0.399,48.810,-8.655,17.763,0.31,0.33,0.7,-132.600,0.279,0.136,0.391,48.669,-9.17,17.436,0.30,0.33,0.9,-139.0,23.342,91153.85,883.174,23.346,91152.828,883.357,18166,0.399,883.357,-7842325.500,5.92,1.867,0.0,0.0,0.0,3.976,0.238
18241,2,18241,75,0.231,0.91,0.411,48.745,-8.772,17.778,0.31,0.32,0.7,-139.0,0.222,0.64,0.427,48.626,-9.90,18.167,0.32,0.35,0.6,-139.0,23.342,91152.976,883.287,23.336,91154.617,883.405,18241,0.411,883.405,-7872737.0,0.650,1.980,0.0,0.0,0.0,3.970,0.246
18278,2,18278,37,0.226,0.66,0.430,48.781,-8.798,17.816,0.32,0.33,0.6,-139.0,0.222,0.78,0.399,48.903,-8.798,17.977,0.33,0.34,0.5,-139.0,23.335,91152.609,883.235,23.313,91152.296,883.311,18278,0.430,883.311,-7888324.500,-2.560,2.83,0.0,0.0,0.0,3.976,0.257
18320,2,18320,42,0.219,0.73,0.430,49.0,-8.892,17.898,0.30,0.33,0.8,-139.0,0.186,0.71,0.442,49.868,-8.696,18.167,0.26,0.31,0.9,-139.0,23.333,91153.382,883.376,23.327,91155.406,883.638,18320,0.430,883.638,-7906410.500,7.799,1.810,0.0,0.0,0.0,3.976,0.257
18356,2,18356,36,0.216,0.97,0.424,48.956,-8.889,17.971,0.30,0.33,0.7,-139.0,0.172,0.136,0.463,48.713,-8.842,18.108,0.31,0.32,0.4,-139.0,23.329,91155.250,883.559,23.323,91161.85,884.83,18356,0.424,884.83,-7921809.0,12.340,1.729,0.0,0.0,0.0,3.970,0.254
18393,2,18393,37,0.193,0.83,0.443,49.17,-8.801,18.41,0.30,0.32,0.7,-139.0,0.165,0.64,0.485,48.976,-8.579,17.787,0.28,0.31,0.8,-139.0,23.325,91156.703,883.601,23.327,91160.54,883.568,18393,0.443,883.568,-7937874.500,-13.917,2.716,0.0,0.0,0.0,3.970,0.265
18435,2,18435,42,0.198,0.97,0.432,49.128,-8.705,18.26,0.30,0.33,0.6,-132.600,0.244,0.136,0.370,49.181,-8.608,18.94,0.29,0.37,0.6,-107.0,23.326,91157.523,883.675,23.341,91158.765,883.778,18435,0.432,883.778,-7956262.0,5.7,1.869,0.0,0.0,0.0,3.976,0.258
18471,2,18471,36,0.172,0.89,0.420,49.85,-8.617,18.29,0.29,0.33,0.7,-132.600,0.93,0.35,0.341,48.684,-8.360,17.991,0.28,0.35,0.8,-139.0,23.331,91158.351,883.685,23.336,91156.437,883.357,18471,0.420,883.357,-7971609.0,-11.701,2.540,0.0,0.0,0.0,3.976,0.251
18514,2,18514,43,0.176,0.89,0.416,48.938,-8.535,17.991,0.29,0.33,0.7,-132.600,0.208,0.71,0.420,49.137,-8.287,17.977,0.30,0.30,0.7,-139.0,23.333,91158.554,883.521,23.336,91156.437,882.818,18514,0.416,882.818,-7989600.500,-12.522,2.601,0.0,0.0,0.0,3.976,0.248
18550,2,18550,36,0.518,0.114,0.456,48.985,-8.535,17.991,0.5,0.43,0.39,-132.600,-1.880,0.265,0.664,48.947,-8.842,18.108,0.91,0.84,0.229,-139.0,23.335,91157.835,883.375,23.336,91157.476,883.357,18550,0.456,883.357,-8005309.500,14.957,1.690,0.0,0.0,0.0,3.976,0.272
18593,2,18593,43,0.953,0.25,0.394,48.944,-8.687,18.76,0.25,0.75,0.10,-132.600,7.192,0.380,0.176,48.772,-9.339,18.211,0.127,0.189,0.261,-139.0,23.338,91157.578,883.333,23.341,91158.765,883.357,18593,0.394,883.357,-8023610.0,0.0,2.0,0.0,0.0,0.0,3.970,0.236
18629,2,18629,36,0.783,0.590,0.427,50.336,-8.444,19.707,0.9,0.9,0.367,-139.0,-1.91,-2.957,0.535,56.138,-7.395,26.249,0.111,0.389,1.788,-139.0,23.338,91158.921,883.207,23.341,91165.484,883.146,18629,0.427,883.146,-8038414.500,-5.857,2.213,0.0,0.0,0.0,3.976,0.255
18673,2,18673,44,-2.361,1.59,0.551,50.707,-7.433,19.836,0.45,0.104,0.478,-139.0,-15.821,8.212,0.958,50.540,-3.303,18.634,0.304,0.437,0.562,-139.0,23.338,91158.921,883.104,23.336,91156.437,882.841,18673,0.551,882.841,-8059951.500,-6.921,2.262,0.0,0.0,0.0,3.970,0.329
18754,2,18754,81,-2.355,1.40,0.647,50.800,-6.717,19.222,0.44,0.63,0.489,-139.0,0.179,0.165,0.901,49.605,-4.706,14.907,0.23,0.233,0.63,-139.0,23.339,91160.882,882.992,23.341,91166.234,882.257,18754,0.647,882.257,-8108495.500,-7.208,2.275,0.0,0.0,0.0,3.976,0.387
18790,2,18790,36,-2.146,0.885,0.806,51.686,-5.796,19.643,0.84,0.116,0.686,-139.0,0.832,-1.40,-1.461,53.376,-4.238,20.213,0.112,0.179,0.754,-139.0,23.335,91161.703,882.711,23.318,91161.593,881.953,18790,0.806,881.953,-8134670.500,-8.460,2.340,0.0,0.0,0.0,3.963,0.482
18832,2,18832,42,-3.271,0.783,0.780,52.268,-4.940,19.877,0.115,0.125,0.702,-139.0,1.564,0.129,0.47,51.680,-5.57,19.380,0.27,0.146,0.341,-139.0,23.333,91163.609,882.561,23.327,91168.312,882.607,18832,0.780,882.607,-8168012.0,15.571,1.681,0.0,0.0,0.0,3.970,0.466
18868,2,18868,36,-1.829,0.895,0.743,51.72,-4.542,17.912,0.94,0.73,0.364,-139.0,6.123,-2.397,0.348,50.160,-5.407,16.427,0.5,0.128,0.99,-139.0,23.330,91163.203,882.561,23.327,91163.414,883.146,18868,0.743,883.146,-8195453.500,14.972,1.690,0.0,0.0,0.0,3.970,0.444
18911,2,18911,43,1.477,0.755,0.595,51.137,-4.595,17.690,0.40,0.44,0.282,-139.0,0.710,0.43,0.219,50.862,-3.566,17.524,0.32,0.149,0.154,-139.0,23.330,91163.921,882.556,23.336,91160.54,882.818,18911,0.595,882.818,-8224249.0,-7.618,2.296,0.0,0.0,0.0,3.970,0.356
18947,2,18947,36,1.425,0.755,0.525,51.373,-4.302,18.129,0.41,0.20,0.277,-132.600,0.437,0.165,0.549,50.789,-3.244,17.100,0.32,0.117,0.38,-107.0,23.330,91162.171,882.692,23.341,91157.476,882.935,18947,0.525,882.935,-8244428.500,3.256,1.910,0.0,0.0,0.0,3.970,0.314
18989,2,18989,42,2.528,0.344,0.610,51.78,-4.270,17.737,0.44,0.69,0.104,-132.600,4.680,1.12,-1.884,51.900,-4.77,18.254,0.122,0.63,0.110,-139.0,23.334,91160.156,882.949,23.336,91151.539,883.239,18989,0.610,883.239,-8268273.0,7.238,1.821,0.0,0.0,0.0,3.970,0.364
19025,2,19025,36,2.67,0.427,0.354,51.856,-3.905,18.336,0.42,0.15,0.37,-132.600,0.739,0.545,1.230,55.568,-3.230,22.376,0.20,0.126,0.3,-139.0,23.337,91157.734,883.76,23.346,91156.187,883.239,19025,0.354,883.239,-8285636.0,0.0,2.0,0.0,0.0,0.0,3.963,0.212
19068,2,19068,43,0.696,0.87,0.387,52.455,-3.627,18.859,0.42,0.41,0.18,-132.600,0.732,0.696,0.513,53.156,-4.19,19.44,0.5,0.3,0.6,-139.0,23.341,91157.15,882.991,23.346,91159.796,882.724,19068,0.387,882.724,-8301590.500,-11.987,2.561,0.0,0.0,0.0,3.963,0.231
19104,2,19104,36,0.370,0.22,0.447,53.373,-3.472,19.824,0.43,0.0,0.16,-132.600,0.918,0.509,0.521,55.451,-2.791,22.347,0.36,0.59,0.143,-139.0,23.343,91155.820,882.972,23.346,91154.117,882.724,19104,0.447,882.724,-8316627.500,0.0,2.0,0.0,0.0,0.0,3.963,0.267
19152,2,19152,48,0.443,0.35,0.409,54.469,-3.124,20.739,0.37,0.27,0.10,-139.0,0.71,0.100,0.355,56.270,-1.505,21.674,0.3,0.19,0.9,-139.0,23.343,91155.359,883.33,23.341,91155.148,883.239,19152,0.409,883.239,-8337193.500,10.738,1.756,0.0,0.0,0.0,3.970,0.244
19188,2,19188,36,0.554,0.182,0.137,55.133,-2.700,21.318,0.13,0.32,0.34,-139.0,0.308,0.78,0.528,55.217,-1.958,21.148,0.0,0.36,0.8,-139.0,23.342,91156.140,882.911,23.332,91155.406,882.630,19188,0.137,882.630,-8347036.0,-16.920,3.30,0.0,0.0,0.0,3.970,0.82
19264,2,19264,76,0.488,0.195,0.643,55.249,-2.326,20.985,0.14,0.18,0.43,-139.0,0.409,1.342,-1.296,56.153,-1.359,20.710,0.25,0.129,0.52,-139.0,23.341,91156.796,882.940,23.341,91159.515,883.381,19264,0.643,883.381,-8376707.500,9.881,1.771,0.0,0.0,0.0,3.963,0.384
19302,2,19302,38,0.308,0.324,0.555,55.679,-1.864,21.338,0.21,0.26,0.41,-132.600,0.165,0.50,0.75,55.305,-1.710,20.812,0.42,0.46,0.8,-107.0,23.335,91156.437,882.973,23.313,91157.976,882.889,19302,0.555,882.889,-8399481.0,-12.944,2.634,0.0,0.0,0.0,3.970,0.332
19344,2,19344,42,0.103,0.254,0.416,55.805,-1.537,21.5,0.26,0.65,0.8,-132.600,1.141,0.157,0.175,56.80,-1.154,20.681,0.60,0.135,0.21,-139.0,23.329,91156.78,883.48,23.318,91152.296,883.100,19344,0.416,883.100,-8419888.0,5.20,1.869,0.0,0.0,0.0,3.970,0.248
19380,2,19380,36,0.64,0.189,0.449,55.735,-1.479,20.818,0.39,0.111,0.5,-132.600,0.911,0.423,0.521,55.919,-1.213,20.739,0.67,0.209,0.3,-139.0,23.325,91158.234,882.875,23.323,91165.984,882.374,19380,0.449,882.374,-8435468.0,-20.175,3.533,0.0,0.0,0.0,3.963,0.268
19422,2,19422,42,0.64,0.145,0.417,55.767,-1.370,20.651,0.48,0.117,0.7,-132.600,0.308,0.301,0.370,55.378,-1.417,20.315,0.44,0.68,0.20,-139.0,23.324,91159.671,882.908,23.327,91162.625,882.796,19422,0.417,882.796,-8453674.0,10.41,1.768,0.0,0.0,0.0,3.970,0.249
19459,2,19459,37,0.97,0.152,0.262,55.375,-1.441,20.385,0.57,0.106,0.2,-132.600,0.574,0.143,0.521,54.194,-1.710,19.380,0.70,0.71,0.3,-139.0,23.323,91159.890,882.786,23.332,91160.554,882.772,19459,0.262,882.772,-8466260.0,0.636,2.19,0.0,0.0,0.0,3.963,0.157
19502,2,19502,43,0.136,0.153,0.332,55.21,-1.560,20.5,0.59,0.106,0.0,-132.600,0.28,0.57,0.427,53.536,-2.309,18.912,0.52,0.46,0.0,-107.0,23.324,91160.875,882.725,23.323,91162.875,882.584,19502,0.332,882.584,-8479066.0,-4.368,2.150,0.0,0.0,0.0,3.970,0.199
19538,2,19538,36,0.373,0.104,0.452,54.448,-1.724,19.435,0.54,0.86,0.5,-132.600,0.43,0.401,0.420,53.215,-1.973,17.831,0.36,0.39,0.49,-139.0,23.325,91163.648,882.514,23.323,91166.234,882.46,19538,0.452,882.46,-8493198.0,-14.955,2.813,0.0,0.0,0.0,3.976,0.270
19580,2,19580,42,0.315,0.348,0.456,53.835,-1.841,18.900,0.44,0.44,0.4,-132.600,0.624,-1.643,0.542,52.850,-1.797,18.64,0.18,0.1,0.0,-139.0,23.325,91163.703,882.594,23.323,91166.234,882.772,19580,0.456,882.772,-8512279.0,17.291,1.658,0.0,0.0,0.0,3.963,0.272
19616,2,19616,36,0.229,0.288,0.442,53.279,-1.900,18.436,0.43,0.37,0.8,-132.600,0.122,0.0,0.298,52.601,-1.710,17.991,0.41,0.31,0.4,-139.0,23.324,91162.773,882.571,23.323,91157.976,882.679,19616,0.442,882.679,-8528453.0,-2.585,2.84,0.0,0.0,0.0,3.963,0.264
19659,2,19659,43,0.146,0.314,0.437,52.943,-1.908,18.102,0.36,0.32,0.14,-132.600,0.157,0.272,0.499,52.513,-1.753,17.714,0.34,0.47,0.26,-139.0,23.323,91161.585,882.594,23.323,91154.617,882.889,19659,0.437,882.889,-8547371.0,4.891,1.872,0.0,0.0,0.0,3.970,0.261
19696,2,19696,37,0.200,0.55,0.433,52.744,-1.777,17.871,0.30,0.15,0.38,-139.0,0.301,1.794,0.406,52.543,-1.651,17.757,0.20,0.38,0.124,-139.0,23.322,91162.476,882.632,23.318,91167.273,882.772,19696,0.433,882.772,-8563490.0,-3.168,2.105,0.0,0.0,0.0,3.970,0.259
19954,2,19954,258,0.196,0.22,0.433,52.698,-1.666,17.743,0.30,0.11,0.32,-139.0,0.21,0.236,0.420,52.981,-1.417,17.187,0.36,0.19,0.14,-139.0,23.321,91161.789,882.755,23.318,91162.812,882.662,19954,0.433,882.662,-8675329.0,0.428,2.13,0.0,0.0,0.0,3.976,0.259
19990,2,19990,36,0.78,0.328,0.388,52.917,-1.613,17.614,0.25,0.6,0.30,-139.0,0.35,0.114,0.320,53.946,-1.534,17.421,0.6,0.27,0.9,-139.0,23.304,91160.539,882.765,23.240,91159.992,882.824,19990,0.388,882.824,-8690133.0,4.518,1.880,0.0,0.0,0.0,3.970,0.232
20156,2,20156,166,0.145,0.278,0.420,53.22,-1.786,17.500,0.30,0.16,0.30,-139.0,0.208,0.251,0.456,53.127,-2.572,17.421,0.68,0.81,0.1,-139.0,23.290,91160.828,882.912,23.249,91159.453,883.411,20156,0.420,883.411,-8757325.0,3.534,1.904,0.0,0.0,0.0,3.970,0.251
20192,2,20192,36,0.255,0.315,0.396,53.136,-1.993,17.451,0.37,0.24,0.21,-139.0,0.710,0.86,0.377,53.83,-2.791,17.465,0.66,0.85,0.18,-139.0,23.274,91161.953,882.871,23.245,91160.242,882.685,20192,0.396,882.685,-8772026.0,-20.175,3.533,0.0,0.0,0.0,3.970,0.236
20358,2,20358,166,0.248,0.30,0.417,53.308,-2.154,17.459,0.35,0.33,0.2,-139.0,0.265,0.64,0.513,53.405,-2.455,17.801,0.14,0.10,0.0,-139.0,23.259,91160.23,882.971,23.245,91157.632,883.271,20358,0.417,883.271,-8839576.0,3.533,1.904,0.0,0.0,0.0,3.963,0.249
20441,2,20441,83,0.323,0.166,0.443,53.306,-2.373,17.375,0.34,0.42,0.4,-139.0,0.394,0.445,0.549,52.966,-2.513,16.764,0.28,0.63,0.5,-139.0,23.240,91159.875,882.943,23.222,91162.31,882.522,20441,0.443,882.522,-8875317.0,-9.21,2.371,0.0,0.0,0.0,3.976,0.265
20483,2,20483,42,0.515,0.256,0.796,53.42,-2.516,17.304,0.43,0.67,0.4,-139.0,0.997,0.567,-2.85,52.630,-2.250,17.71,0.38,0.93,0.8,-139.0,23.237,91161.359,882.807,23.226,91167.460,882.146,20483,0.796,882.146,-8901362.0,-8.959,2.367,0.0,0.0,0.0,3.976,0.476
20519,2,20519,36,0.572,0.219,0.829,53.162,-2.417,17.354,0.39,0.81,0.30,-132.600,0.495,0.64,0.621,53.726,-2.75,17.670,0.51,0.153,0.133,-107.0,23.235,91162.195,882.605,23.240,91163.601,882.402,20519,0.829,882.402,-8930638.0,7.105,1.824,0.0,0.0,0.0,3.970,0.496
20562,2,20562,43,-1.124,0.176,0.663,53.346,-2.312,17.471,0.37,0.21,0.15,-132.600,-3.467,1.895,0.455,54.4,-2.265,18.50,0.54,0.211,0.61,-139.0,23.235,91163.695,882.530,23.245,91167.742,882.308,20562,0.663,882.308,-8962736.0,-2.178,2.69,0.0,0.0,0.0,3.976,0.396
20599,2,20599,37,-1.319,0.156,0.620,53.452,-2.508,17.430,0.26,0.5,0.15,-132.600,-1.241,0.35,0.298,53.931,-3.434,17.597,0.40,0.72,0.0,-139.0,23.237,91166.640,882.300,23.254,91172.390,882.120,20599,0.620,882.120,-8986477.0,-5.77,2.179,0.0,0.0,0.0,3.976,0.370
20640,2,20640,41,-1.359,0.271,0.611,53.598,-2.537,17.535,0.11,0.15,0.16,-132.600,0.595,0.129,0.506,53.697,-2.660,17.290,0.46,0.37,0.3,-139.0,23.246,91167.531,882.261,23.263,91166.460,882.331,20640,0.611,882.331,-9011726.0,5.129,1.866,0.0,0.0,0.0,3.970,0.365
20676,2,20676,36,-1.363,0.312,0.262,54.51,-2.689,17.600,0.0,0.50,0.3,-132.600,-1.19,0.358,0.341,54.896,-3.10,17.392,0.22,0.84,0.91,-139.0,23.253,91168.468,882.387,23.263,91172.140,882.775,20676,0.262,882.775,-9027461.0,12.354,1.729,0.0,0.0,0.0,3.976,0.157
20720,2,20720,44,-1.320,0.176,0.239,54.89,-2.698,17.524,0.5,0.78,0.31,-139.0,0.279,0.746,0.506,53.916,-2.119,17.290,0.25,0.11,0.10,-139.0,23.259,91168.109,882.607,23.272,91161.812,883.502,20720,0.239,883.502,-9038512.0,16.508,1.668,0.0,0.0,0.0,3.970,0.143
20756,2,20756,36,0.770,0.166,0.413,54.57,-2.820,17.453,0.8,0.23,0.20,-139.0,0.717,0.179,0.413,53.843,-2.879,17.699,0.43,0.66,0.4,-139.0,23.266,91165.953,882.658,23.277,91156.914,882.565,20756,0.413,882.565,-9050267.0,-26.34,5.567,0.0,0.0,0.0,3.970,0.247
20798,2,20798,42,0.590,0.155,0.452,54.10,-2.727,17.380,0.9,0.1,0.19,-139.0,0.337,0.21,0.492,53.697,-2.966,17.231,0.47,0.53,0.3,-139.0,23.269,91163.320,882.832,23.272,91159.234,882.986,20798,0.452,882.986,-9068443.0,10.41,1.768,0.0,0.0,0.0,3.963,0.270
20834,2,20834,36,0.505,0.186,0.442,53.826,-2.847,17.459,0.29,0.19,0.19,-139.0,0.172,0.28,0.456,52.776,-3.259,17.684,0.53,0.48,0.6,-139.0,23.273,91162.125,882.883,23.281,91160.523,882.587,20834,0.442,882.587,-9084539.0,-11.91,2.498,0.0,0.0,0.0,3.970,0.264
20877,2,20877,43,0.308,0.139,0.444,53.539,-2.829,17.605,0.41,0.43,0.0,-139.0,0.35,0.122,0.355,53.463,-2.923,18.123,0.36,0.38,0.8,-139.0,23.276,91160.734,882.864,23.277,91165.171,882.682,20877,0.444,882.682,-9103611.0,2.204,1.937,0.0,0.0,0.0,3.963,0.266
20928,2,20928,51,0.24,0.142,0.335,53.156,-2.920,17.763,0.43,0.55,0.8,-139.0,1.141,0.760,0.38,52.2,-2.572,18.79,0.38,0.72,0.29,-139.0,23.275,91159.804,882.738,23.268,91157.164,882.869,20928,0.335,882.869,-9123522.0,3.672,1.900,0.0,0.0,0.0,3.963,0.200
20973,2,20973,45,0.78,0.203,0.360,52.908,-2.797,17.766,0.46,0.56,0.11,-139.0,0.200,0.129,0.535,52.601,-2.265,17.714,0.58,0.67,0.8,-139.0,23.274,91160.578,882.794,23.272,91160.773,882.847,20973,0.360,882.847,-9139185.0,0.499,2.15,0.0,0.0,0.0,3.963,0.215
21009,2,21009,36,0.103,0.256,0.344,52.630,-2.662,17.877,0.51,0.64,0.13,-139.0,0.215,0.244,0.413,52.309,-2.294,17.787,0.70,0.94,0.11,-139.0,23.273,91160.421,882.771,23.268,91158.453,882.869,21009,0.344,882.869,-9151870.0,0.623,1.981,0.0,0.0,0.0,3.970,0.205
21053,2,21053,44,0.67,0.175,0.347,52.563,-2.584,17.880,0.50,0.78,0.13,-139.0,0.351,0.380,0.470,52.440,-2.864,17.699,0.47,0.117,0.6,-139.0,23.269,91160.515,882.799,23.263,91161.23,882.730,21053,0.347,882.730,-9167090.0,-3.162,2.104,0.0,0.0,0.0,3.963,0.207
21089,2,21089,36,0.67,0.189,0.386,52.297,-2.525,17.892,0.50,0.96,0.12,-139.0,0.35,0.193,0.549,52.133,-2.630,18.181,0.39,0.131,0.5,-139.0,23.267,91159.640,882.748,23.263,91160.773,882.425,21089,0.386,882.425,-9180292.0,-8.473,2.340,0.0,0.0,0.0,3.963,0.230
21131,2,21131,42,0.261,0.93,0.490,52.300,-2.566,17.898,0.48,0.89,0.8,-139.0,0.502,0.279,0.485,52.16,-2.776,18.108,0.25,0.39,0.8,-139.0,23.266,91161.968,882.767,23.263,91168.781,882.963,21131,0.490,882.963,-9198709.0,12.820,1.722,0.0,0.0,0.0,3.976,0.293
21167,2,21167,36,0.183,0.165,0.340,52.206,-2.782,17.939,0.41,0.94,0.8,-139.0,0.186,0.488,0.218,52.133,-3.346,17.918,0.22,0.92,0.7,-139.0,23.263,91162.226,882.753,23.258,91162.62,882.775,21167,0.340,882.775,-9213668.0,-5.220,2.185,0.0,0.0,0.0,3.970,0.203
21204,2,21204,37,0.136,0.170,0.278,52.177,-2.926,18.47,0.35,0.84,0.8,-139.0,0.21,0.272,0.104,52.163,-3.10,18.327,0.41,0.40,0.12,-139.0,23.262,91162.890,882.809,23.263,91161.812,883.151,21204,0.278,883.151,-9225112.0,10.156,1.766,0.0,0.0,0.0,3.970,0.166
21247,2,21247,43,0.60,0.301,0.212,52.87,-2.902,18.202,0.33,0.81,0.7,-132.600,0.28,0.272,0.140,51.987,-2.747,18.474,0.36,0.104,0.5,-107.0,23.262,91162.843,882.748,23.263,91160.773,882.425,21247,0.212,882.425,-9235665.0,-16.891,3.27,0.0,0.0,0.0,3.970,0.127
21283,2,21283,36,0.66,0.624,0.156,51.917,-2.803,18.281,0.33,0.66,0.8,-132.600,0.64,-1.808,0.269,51.286,-2.133,18.576,0.41,0.54,0.6,-139.0,23.261,91162.632,882.898,23.258,91159.742,883.174,21283,0.156,883.174,-9242303.0,20.799,1.615,0.0,0.0,0.0,3.963,0.93
21325,2,21325,42,0.27,0.571,0.165,51.786,-2.832,18.403,0.33,0.85,0.7,-132.600,0.308,0.14,0.528,51.359,-2.923,18.722,0.26,0.138,0.5,-139.0,23.261,91162.687,882.809,23.263,91169.31,882.520,21325,0.165,882.520,-9249053.0,-15.572,2.876,0.0,0.0,0.0,3.963,0.98
21361,2,21361,36,0.58,0.595,0.252,51.718,-2.695,18.573,0.37,0.121,0.3,-132.600,0.617,0.610,0.219,51.797,-2.660,18.766,0.41,0.271,0.10,-139.0,23.260,91162.687,882.842,23.254,91162.62,882.940,21361,0.252,882.940,-9256570.0,11.686,1.740,0.0,0.0,0.0,3.963,0.151
21404,2,21404,43,0.57,0.389,0.348,51.712,-2.651,18.857,0.37,0.117,0.2,-132.600,0.14,0.760,0.585,52.133,-2.791,19.745,0.41,0.17,0.8,-139.0,23.259,91162.992,882.734,23.258,91163.351,882.612,21404,0.348,882.612,-9269499.0,-7.630,2.296,0.0,0.0,0.0,3.963,0.208
21471,2,21471,67,0.21,0.307,0.433,51.610,-2.744,18.915,0.36,0.95,0.3,-139.0,0.150,0.136,0.564,51.476,-3.215,18.766,0.31,0.4,0.8,-139.0,23.257,91162.679,882.744,23.254,91159.203,882.473,21471,0.433,882.473,-9295705.0,-2.76,2.66,0.0,0.0,0.0,3.970,0.259
21513,2,21513,42,0.53,0.10,0.452,51.900,-2.785,19.41,0.33,0.81,0.4,-139.0,0.93,0.323,0.363,52.733,-2.338,19.204,0.28,0.14,0.10,-139.0,23.253,91162.156,882.679,23.235,91157.132,882.849,21513,0.452,882.849,-9314303.0,8.959,1.788,0.0,0.0,0.0,3.970,0.270
21549,2,21549,36,0.84,0.54,0.470,52.174,-2.674,19.196,0.33,0.49,0.3,-139.0,0.150,0.236,0.621,52.733,-2.367,19.497,0.23,0.21,0.3,-139.0,23.246,91160.906,882.792,23.226,91162.812,883.83,21549,0.470,883.83,-9330916.0,6.481,1.837,0.0,0.0,0.0,3.963,0.281
21591,2,21591,42,0.35,0.37,0.521,52.429,-2.613,19.201,0.31,0.4,0.6,-139.0,0.14,0.150,0.470,53.69,-2.353,18.795,0.33,0.1,0.2,-139.0,23.241,91160.546,882.825,23.231,91160.242,883.106,21591,0.521,883.106,-9351745.0,0.547,1.983,0.0,0.0,0.0,3.970,0.311
21628,2,21628,37,0.463,0.412,0.180,52.662,-2.543,18.921,0.134,0.16,0.14,-139.0,-2.124,-1.485,1.115,53.303,-2.440,18.342,0.554,0.42,0.49,-139.0,23.235,91161.578,882.755,23.231,91168.500,882.263,21628,0.180,882.263,-9364730.0,-22.784,4.159,0.0,0.0,0.0,3.963,0.108
21670,2,21670,42,0.307,0.519,0.27,53.539,-2.291,18.851,0.137,0.1,0.14,-139.0,0.631,0.401,0.476,55.860,-1.958,18.415,0.46,0.84,0.7,-139.0,23.234,91162.710,882.797,23.245,91164.890,882.685,21670,0.27,882.685,-9367952.0,10.43,1.768,0.0,0.0,0.0,3.963,0.16
21706,2,21706,36,0.351,0.624,0.165,54.95,-2.183,18.737,0.162,0.0,0.23,-139.0,0.129,0.847,-1.325,55.510,-1.797,18.634,0.156,0.26,0.55,-139.0,23.235,91165.203,882.764,23.240,91169.531,882.685,21706,0.165,882.685,-9370429.0,0.0,2.0,0.0,0.0,0.0,3.970,0.98
21750,2,21750,44,0.584,0.716,0.70,55.115,-2.19,18.541,0.158,0.7,0.25,-139.0,-1.313,0.696,0.147,57.833,-1.549,18.517,0.1,0.18,0.11,-139.0,23.236,91165.203,882.661,23.235,91162.812,882.568,21750,0.70,882.568,-9375605.0,-2.652,2.86,0.0,0.0,0.0,3.976,0.42
21787,2,21787,37,0.145,0.73,0.46,56.53,-1.859,18.526,0.163,0.18,0.29,-132.600,2.210,3.65,0.110,57.760,-1.549,18.722,0.61,0.56,0.22,-107.0,23.237,91165.664,882.577,23.235,91162.562,882.685,21787,0.46,882.685,-9376053.0,3.154,1.913,0.0,0.0,0.0,3.970,0.27
21830,2,21830,43,0.291,-1.997,1.529,57.111,-1.739,18.687,0.86,0.52,0.27,-132.600,-2.857,-11.105,8.530,58.593,-1.841,19.146,0.696,0.127,0.40,-139.0,23.238,91164.726,882.572,23.235,91163.851,882.240,21830,1.529,882.240,-9342187.0,-10.343,2.449,0.0,0.0,0.0,3.976,0.914
21866,2,21866,36,0.535,-2.861,0.156,57.743,-1.686,18.976,0.62,0.38,0.33,-132.600,0.588,-4.723,-6.385,59.17,-1.695,19.862,0.791,0.16,0.40,-139.0,23.236,91164.734,882.511,23.235,91164.890,882.379,21866,0.156,882.379,-9311845.0,3.879,1.895,0.0,0.0,0.0,3.976,0.93
21908,2,21908,42,0.427,-2.881,0.127,58.728,-1.499,19.196,0.60,0.64,0.23,-132.600,0.409,0.947,-1.468,60.435,0.862,19.731,0.144,0.105,0.3,-139.0,23.235,91162.453,882.446,23.235,91158.164,882.357,21908,0.127,882.357,-9305871.0,0.534,2.16,0.0,0.0,0.0,3.976,0.76
21976,2,21976,68,0.30,-2.745,0.94,59.251,-1.452,19.82,0.61,0.56,0.22,-132.600,0.674,0.14,0.312,60.450,-1.315,17.947,0.8,0.24,0.7,-139.0,23.235,91162.554,882.502,23.235,91163.312,882.849,21976,0.94,882.849,-9298298.0,7.241,1.821,0.0,0.0,0.0,3.970,0.56
22017,2,22017,41,0.422,-3.304,0.27,59.774,-1.365,18.968,0.39,0.28,0.19,-139.0,0.251,0.265,0.499,60.377,-1.110,18.152,0.50,0.82,0.4,-139.0,23.234,91163.531,882.432,23.226,91167.460,882.334,22017,0.27,882.334,-9296911.0,-12.571,2.605,0.0,0.0,0.0,3.976,0.16
22053,2,22053,36,0.96,-1.92,-1.777,60.81,-1.189,18.827,0.165,0.17,0.8,-139.0,0.265,0.43,0.219,60.128,0.964,18.444,0.65,0.101,0.12,-139.0,23.231,91164.46,882.540,23.222,91166.421,882.778,22053,-1.777,882.778,-9329392.0,12.339,1.729,0.0,0.0,0.0,3.976,-1.62
22096,2,22096,43,0.312,0.176,0.567,60.438,-1.37,18.433,0.0,0.20,0.60,-139.0,0.495,0.143,0.334,60.800,0.935,17.889,0.38,0.1,0.307,-139.0,23.232,91163.843,882.615,23.240,91163.851,882.755,22096,0.567,882.755,-9379794.0,0.535,2.16,0.0,0.0,0.0,3.970,0.339
22132,2,22132,36,0.127,0.167,0.383,60.529,-1.52,18.108,0.13,0.28,0.73,-139.0,0.516,0.904,0.549,60.888,0.935,18.108,0.77,0.64,0.59,-139.0,23.232,91165.445,882.741,23.235,91166.171,882.989,22132,0.383,882.989,-9396898.0,6.496,1.836,0.0,0.0,0.0,3.976,0.229
22174,2,22174,42,0.87,0.188,0.243,60.570,-1.52,18.99,0.3,0.2,0.156,-139.0,0.401,0.114,0.383,60.654,-1.315,17.904,0.60,0.107,0.406,-139.0,23.233,91165.296,882.732,23.240,91162.562,882.801,22174,0.243,882.801,-9410069.0,-4.473,2.154,0.0,0.0,0.0,3.976,0.145
22210,2,22210,36,0.518,-1.711,-1.240,60.599,-1.151,18.196,0.29,0.25,0.153,-139.0,-1.902,-7.350,-5.481,60.523,-1.607,18.634,0.115,0.53,0.19,-139.0,23.235,91164.562,882.698,23.235,91163.851,882.169,22210,-1.240,882.169,-9436787.0,-17.573,3.115,0.0,0.0,0.0,3.970,0.741
22253,2,22253,43,0.480,-1.793,-1.279,60.640,-1.397,18.222,0.55,0.73,0.149,-139.0,0.78,0.452,0.413,60.333,-2.192,18.576,0.60,0.138,0.7,-139.0,23.240,91163.843,882.534,23.249,91162.812,881.958,22253,-1.279,881.958,-9490955.0,-4.891,2.171,0.0,0.0,0.0,3.976,0.764
22289,2,22289,36,0.568,-1.709,-1.299,60.464,-1.666,18.412,0.74,0.83,0.88,-139.0,0.57,0.272,0.434,59.923,-2.280,18.839,0.60,0.51,0.1,-139.0,23.240,91164.265,882.502,23.240,91165.921,882.590,22289,-1.299,882.590,-9537365.0,17.557,1.654,0.0,0.0,0.0,3.976,0.776
22335,2,22335,46,0.492,-1.534,-1.261,60.368,-1.987,18.500,0.73,0.88,0.73,-139.0,0.136,0.28,0.363,60.406,-2.543,18.547,0.72,0.89,0.15,-139.0,23.241,91163.796,882.380,23.240,91163.851,882.379,22335,-1.261,882.379,-9596270.0,-4.584,2.159,0.0,0.0,0.0,3.976,0.754
22371,2,22371,36,0.435,-1.500,-1.422,60.213,-2.239,18.585,0.72,0.89,0.10,-139.0,0.114,0.57,0.420,59.880,-2.572,18.327,0.53,0.111,0.13,-139.0,23.242,91163.546,882.398,23.245,91161.273,882.895,22371,-1.422,882.895,-9644592.0,14.317,1.699,0.0,0.0,0.0,3.976,0.850
22415,2,22415,44,0.25,0.34,0.426,60.114,-2.329,18.535,0.55,0.102,0.8,-139.0,0.143,0.21,0.499,60.26,-2.60,18.386,0.30,0.122,0.6,-139.0,23.243,91162.828,882.562,23.240,91160.242,882.989,22415,0.426,882.989,-9685270.0,2.140,1.939,0.0,0.0,0.0,3.976,0.254
22482,2,22482,67,0.84,0.53,0.416,59.970,-2.358,18.658,0.50,0.87,0.8,-139.0,0.473,0.14,0.363,59.617,-2.338,19.190,0.36,0.63,0.7,-139.0,23.241,91161.421,882.722,23.240,91155.843,882.755,22482,0.416,882.755,-9713496.0,-3.490,2.116,0.0,0.0,0.0,3.970,0.248
22524,2,22524,42,0.124,0.24,0.416,59.839,-2.335,18.655,0.42,0.83,0.7,-139.0,0.258,0.129,0.434,59.266,-2.163,18.824,0.21,0.29,0.3,-139.0,23.238,91161.523,882.797,23.226,91166.421,882.966,22524,0.416,882.966,-9730979.0,5.20,1.869,0.0,0.0,0.0,3.970,0.248
22560,2,22560,36,0.318,0.129,0.424,59.719,-2.192,18.637,0.31,0.62,0.6,-139.0,0.832,0.495,0.406,59.807,-1.826,18.459,0.16,0.15,0.9,-139.0,23.235,91161.117,882.919,23.222,91161.781,882.989,22560,0.424,882.989,-9746119.0,0.639,1.981,0.0,0.0,0.0,3.976,0.254
22602,2,22602,42,0.318,0.107,0.421,59.789,-2.142,18.737,0.28,0.40,0.3,-139.0,0.114,0.50,0.406,60.230,-2.323,18.824,0.38,0.1,0.0,-139.0,23.232,91160.281,882.975,23.231,91157.132,883.176,22602,0.421,883.176,-9763903.0,4.461,1.881,0.0,0.0,0.0,3.976,0.252
22638,2,22638,36,0.348,0.195,0.321,59.728,-2.104,18.810,0.31,0.7,0.3,-139.0,0.294,-1.536,0.2,59.719,-1.870,18.751,0.43,0.39,0.7,-139.0,23.229,91160.328,882.891,23.226,91160.492,882.568,22638,0.321,882.568,-9777286.0,-16.905,3.29,0.0,0.0,0.0,3.976,0.192
22681,2,22681,43,0.114,0.241,0.308,59.760,-2.75,18.661,0.25,0.11,0.5,-139.0,-1.844,0.244,0.298,59.777,-2.192,18.444,0.8,0.31,0.15,-139.0,23.226,91162.398,882.830,23.226,91166.171,882.450,22681,0.308,882.450,-9790833.0,-2.738,2.89,0.0,0.0,0.0,3.963,0.184
22717,2,22717,36,0.124,0.155,0.304,59.839,-2.40,18.634,0.30,0.0,0.6,-139.0,0.208,0.559,0.413,59.660,-1.987,18.693,0.44,0.83,0.3,-139.0,23.226,91160.953,882.689,23.226,91159.203,882.263,22717,0.304,882.263,-9801864.0,-5.204,2.185,0.0,0.0,0.0,3.976,0.181
22760,2,22760,43,0.456,0.297,0.310,59.751,-2.14,18.570,0.34,0.5,0.4,-139.0,0.825,0.215,0.434,59.368,-1.695,18.137,0.38,0.14,0.0,-139.0,23.228,91159.562,882.774,23.231,91154.804,883.411,22760,0.310,883.411,-9815071.0,26.700,1.555,0.0,0.0,0.0,3.963,0.185
22797,2,22797,37,0.390,0.264,0.334,59.526,-1.926,18.459,0.33,0.21,0.6,-139.0,0.215,0.114,0.528,59.105,-1.885,18.269,0.32,0.82,0.5,-139.0,23.228,91158.585,882.759,23.231,91152.234,883.106,22797,0.334,883.106,-9826993.0,-8.246,2.328,0.0,0.0,0.0,3.963,0.199
22840,2,22840,43,0.396,0.61,0.406,59.456,-1.891,18.526,0.30,0.43,0.5,-139.0,0.265,0.93,0.355,59.368,-1.695,19.87,0.27,0.68,0.6,-139.0,23.230,91158.125,882.844,23.235,91158.164,882.989,22840,0.406,882.989,-9842917.0,-2.713,2.88,0.0,0.0,0.0,3.970,0.242
22877,2,22877,37,0.34,0.117,0.424,59.371,-1.905,18.658,0.36,0.67,0.3,-139.0,0.35,0.35,0.391,59.353,-2.265,19.102,0.42,0.87,0.4,-139.0,23.233,91157.187,882.914,23.240,91161.531,882.801,22877,0.424,882.801,-9858292.0,-5.77,2.179,0.0,0.0,0.0,3.970,0.254
22918,2,22918,41,0.50,0.109,0.411,59.307,-1.900,18.693,0.35,0.53,0.5,-139.0,0.631,0.574,0.348,59.339,-1.958,18.868,0.35,0.13,0.10,-139.0,23.235,91156.726,883.59,23.240,91156.882,882.989,22918,0.411,882.989,-9875447.0,4.582,1.879,0.0,0.0,0.0,3.970,0.246
22966,2,22966,48,0.353,0.153,0.396,59.336,-1.984,18.871,0.35,0.26,0.6,-139.0,0.689,0.437,0.355,59.514,-2.119,19.29,0.39,0.120,0.3,-139.0,23.238,91157.335,883.78,23.245,91157.914,883.505,22966,0.396,883.505,-9894842.0,10.739,1.756,0.0,0.0,0.0,3.970,0.236
23008,2,23008,42,0.311,0.301,0.371,59.143,-2.601,19.251,0.22,0.1,0.6,-139.0,0.7,0.624,0.406,58.140,-4.969,20.169,0.32,0.41,0.7,-139.0,23.239,91159.406,883.78,23.235,91162.562,883.106,23008,0.371,883.106,-9910968.0,-9.495,2.398,0.0,0.0,0.0,3.970,0.222
23045,2,23045,37,0.87,0.206,0.480,58.903,-3.121,19.362,0.17,0.12,0.5,-139.0,-1.730,0.567,0.901,58.170,-4.296,19.643,0.1,0.1,0.0,-139.0,23.240,91160.960,883.82,23.240,91165.921,883.12,23045,0.480,883.12,-9926741.0,-2.546,2.82,0.0,0.0,0.0,3.970,0.287
23088,2,23088,43,0.5,0.78,0.526,58.743,-3.142,19.228,0.17,0.14,0.5,-139.0,0.373,0.674,0.621,58.550,-2.367,18.430,0.40,0.75,0.4,-139.0,23.239,91160.648,882.998,23.235,91159.992,882.379,23088,0.526,882.379,-9948406.0,-14.699,2.788,0.0,0.0,0.0,3.963,0.315
23124,2,23124,36,0.76,0.30,0.536,58.623,-3.390,19.219,0.5,0.18,0.8,-139.0,0.279,0.28,0.399,58.740,-3.200,18.824,0.21,0.5,0.25,-139.0,23.240,91160.390,883.7,23.245,91155.593,883.35,23124,0.536,883.35,-9967552.0,18.196,1.646,0.0,0.0,0.0,3.963,0.321
23167,2,23167,43,0.401,0.43,0.549,58.725,-3.431,19.85,0.6,0.2,0.95,-139.0,0.940,0.373,0.420,60.26,-2.323,18.357,0.41,0.19,0.439,-139.0,23.242,91159.937,882.951,23.254,91155.593,883.222,23167,0.549,883.222,-9990915.0,4.357,1.884,0.0,0.0,0.0,3.970,0.328
23203,2,23203,36,0.453,0.165,0.496,58.976,-2.890,18.760,0.34,0.37,0.102,-139.0,0.251,0.14,0.140,59.397,-2.265,18.547,0.111,0.135,0.43,-139.0,23.243,91158.953,883.58,23.240,91157.664,883.644,23203,0.496,883.644,-10009751.0,11.715,1.739,0.0,0.0,0.0,3.963,0.297
23245,2,23245,42,0.301,0.282,0.457,59.146,-2.423,18.591,0.34,0.46,0.348,-139.0,0.969,1.155,0.707,59.17,-1.958,18.795,0.1,0.48,1.229,-139.0,23.245,91158.234,883.124,23.249,91162.312,883.339,23245,0.457,883.339,-10029797.0,-7.264,2.278,0.0,0.0,0.0,3.963,0.273
23281,2,23281,36,-2.869,0.178,0.700,59.611,-1.838,18.699,0.36,0.0,0.866,-139.0,-12.468,0.150,-1.834,60.874,0.555,18.971,0.49,0.161,2.592,-139.0,23.247,91157.765,883.320,23.249,91157.664,883.362,23281,0.700,883.362,-10050648.0,0.639,1.981,0.0,0.0,0.0,3.963,0.418
23324,2,23324,43,-2.314,0.31,0.463,60.219,0.760,19.163,0.31,0.29,1.335,-139.0,3.58,0.760,0.785,61.780,2.192,21.148,0.47,0.147,2.373,-139.0,23.249,91157.250,883.423,23.254,91153.23,883.549,23324,0.463,883.549,-10075677.0,4.370,1.884,0.0,0.0,0.0,3.963,0.277
23360,2,23360,36,-2.252,0.238,0.281,60.610,0.602,19.146,0.59,0.72,1.778,-139.0,0.631,-1.722,0.491,61.984,4.486,18.269,0.183,0.486,2.652,-139.0,23.249,91157.921,883.404,23.254,91158.953,883.128,23360,0.281,883.128,-10089086.0,-11.701,2.540,0.0,0.0,0.0,3.970,0.168
23402,2,23402,42,-2.612,0.90,0.364,61.251,2.730,18.859,0.98,0.190,2.465,-139.0,-2.53,0.725,0.556,62.598,8.374,17.114,0.306,0.726,3.481,-139.0,23.251,91158.593,883.175,23.249,91161.23,882.497,23402,0.364,882.497,-10102649.0,-15.37,2.821,0.0,0.0,0.0,3.963,0.218
23438,2,23438,36,-3.632,0.20,0.426,61.955,4.808,19.353,0.141,0.227,2.716,-139.0,-6.65,1.708,-1.16,62.540,8.433,21.265,0.215,0.236,2.484,-139.0,23.250,91157.460,883.72,23.245,91156.632,882.824,23438,0.426,882.824,-10116885.0,9.99,1.785,0.0,0.0,0.0,3.963,0.254
23512,2,23512,74,0.524,0.278,0.80,62.37,7.50,19.441,0.156,0.273,2.418,-139.0,3.72,1.442,0.104,61.283,11.765,19.409,0.123,0.66,1.100,-139.0,23.250,91158.234,882.867,23.249,91161.531,882.334,23512,0.80,882.334,-10135630.0,-6.624,2.248,0.0,0.0,0.0,3.963,0.48
23548,2,23548,36,0.864,0.89,0.123,61.897,9.52,19.234,0.189,0.339,2.414,-139.0,1.356,-1.708,0.570,61.78,12.204,20.111,0.116,0.182,2.353,-139.0,23.246,91159.476,882.609,23.231,91159.203,882.263,23548,0.123,882.263,-10139296.0,-1.978,2.63,0.0,0.0,0.0,3.970,0.73
23591,2,23591,43,0.45,0.393,0.149,61.657,11.400,19.44,0.166,0.234,2.121,-139.0,3.460,0.200,0.361,60.786,16.223,17.319,0.71,0.40,1.186,-139.0,23.241,91160.195,882.581,23.231,91162.562,882.989,23591,0.149,882.989,-10145157.0,16.891,1.663,0.0,0.0,0.0,3.963,0.89
23628,2,23628,37,0.625,1.415,0.535,61.236,12.905,18.924,0.59,0.136,1.277,-139.0,1.306,5.836,-2.487,60.494,15.901,16.515,0.232,0.237,0.736,-139.0,23.238,91159.617,882.642,23.235,91158.164,882.801,23628,0.535,882.801,-10157823.0,-5.77,2.179,0.0,0.0,0.0,3.963,0.320
23674,2,23674,46,2.239,0.976,0.456,61.110,14.156,19.438,0.51,0.21,1.62,-139.0,2.2,0.488,0.621,61.911,14.688,23.838,0.335,0.339,1.407,-139.0,23.238,91160.390,882.591,23.245,91160.492,882.568,23674,0.456,882.568,-10180636.0,-5.72,2.179,0.0,0.0,0.0,3.970,0.272
23710,2,23710,36,0.294,0.377,0.327,61.5,14.948,20.488,0.44,0.18,1.404,-139.0,-6.654,-1.550,0.541,60.757,15.726,24.656,0.157,0.54,2.813,-139.0,23.235,91160.796,882.619,23.231,91163.601,882.473,23710,0.327,882.473,-10194743.0,-2.631,2.85,0.0,0.0,0.0,3.963,0.195
23754,2,23754,44,0.605,0.643,0.347,60.505,16.375,20.277,0.45,0.16,1.566,-139.0,-3.144,-6.812,0.469,58.579,19.336,19.58,0.111,0.5,3.163,-139.0,23.235,91160.593,882.619,23.231,91158.164,882.263,23754,0.347,882.263,-10209584.0,-4.781,2.167,0.0,0.0,0.0,3.963,0.207
23791,2,23791,37,0.515,5.202,-2.572,59.754,17.626,20.73,0.1,0.30,2.54,-139.0,9.66,29.29,-10.764,57.30,22.478,16.296,0.307,0.191,3.626,-139.0,23.235,91159.875,882.539,23.235,91158.953,882.590,23791,-2.572,882.590,-10263604.0,8.853,1.790,0.0,0.0,0.0,3.970,-1.538
23833,2,23833,42,0.185,4.403,-2.164,58.82,19.301,20.40,0.93,0.73,3.305,-139.0,0.344,1.837,0.449,52.133,24.276,16.354,0.707,0.455,5.516,-139.0,23.236,91159.148,882.642,23.240,91154.554,883.317,23833,-2.164,883.317,-10363094.0,17.293,1.658,0.0,0.0,0.0,3.970,-1.294
23869,2,23869,36,1.303,4.320,-2.242,55.346,21.891,18.827,0.103,0.76,4.289,-139.0,7.594,0.904,-1.9,48.231,27.638,17.772,0.386,0.326,6.325,-139.0,23.235,91159.359,882.642,23.235,91161.531,882.568,23869,-2.242,882.568,-10442427.0,-20.799,3.659,0.0,0.0,0.0,3.976,-1.340
23913,2,23913,44,3.335,-1.639,-2.869,53.10,24.560,19.386,0.202,0.120,4.611,-139.0,3.503,-31.348,-2.595,49.79,29.70,27.448,0.338,0.926,4.423,-139.0,23.235,91159.406,882.806,23.235,91163.851,883.294,23913,-2.869,883.294,-10554898.0,16.507,1.668,0.0,0.0,0.0,3.970,-1.716
23949,2,23949,36,3.333,0.327,-3.892,50.783,27.600,19.234,0.126,0.274,4.128,-139.0,-3.151,3.22,-4.641,47.442,34.536,18.298,0.490,0.765,0.751,-139.0,23.237,91160.289,882.891,23.240,91162.562,882.685,23949,-3.892,882.685,-10676613.0,-16.933,3.32,0.0,0.0,0.0,3.976,-2.327
24023,2,24023,74,1.336,-5.99,-1.864,47.819,29.494,19.172,0.116,0.289,3.700,-139.0,0.918,1.895,0.628,42.209,31.949,15.989,0.358,0.116,1.482,-139.0,23.236,91159.765,883.22,23.231,91156.343,883.249,24023,-1.864,883.249,-10889620.0,7.623,1.813,0.0,0.0,0.0,3.976,-1.115
24066,2,24066,43,1.307,-5.813,-1.768,45.656,31.128,18.833,0.0,0.355,2.603,-139.0,0.488,-1.730,0.31,41.318,32.446,14.659,0.127,0.124,0.32,-139.0,23.232,91160.796,882.994,23.217,91159.703,883.176,24066,-1.768,883.176,-10967741.0,-1.680,2.53,0.0,0.0,0.0,3.976,-1.57
24102,2,24102,36,0.325,-5.869,-1.630,44.156,32.157,18.123,0.96,0.256,1.302,-139.0,0.574,-1.184,0.320,40.733,32.782,14.220,0.100,0.168,0.180,-139.0,23.230,91158.781,883.93,23.226,91151.445,883.60,24102,-1.630,883.60,-11028933.0,-3.241,2.107,0.0,0.0,0.0,3.970,0.975
24145,2,24145,43,0.582,0.657,-1.429,42.367,32.902,15.600,0.151,0.35,0.413,-139.0,2.218,1.284,-1.590,40.134,32.797,14.834,0.63,0.176,0.18,-139.0,23.228,91157.234,883.69,23.226,91156.93,883.176,24145,-1.429,883.176,-11094738.0,2.713,1.924,0.0,0.0,0.0,3.976,0.855
24181,2,24181,36,0.53,0.516,0.757,40.871,32.37,15.369,0.26,0.142,0.271,-139.0,0.28,2.318,-1.281,39.959,30.210,17.144,0.133,0.125,0.42,-139.0,23.224,91154.742,883.196,23.222,91150.164,883.317,24181,0.757,883.317,-11134119.0,3.894,1.895,0.0,0.0,0.0,3.963,0.453
24223,2,24223,42,2.4,-1.537,0.193,40.309,31.511,15.726,0.64,0.118,0.465,-139.0,8.836,-8.377,2.192,39.403,29.318,17.772,0.98,0.2,2.449,-139.0,23.224,91154.437,883.228,23.231,91154.804,883.411,24223,0.193,883.411,-11154104.0,2.243,1.936,0.0,0.0,0.0,3.976,0.115
24259,2,24259,36,9.985,-2.459,4.60,39.362,31.946,15.396,0.61,0.200,1.203,-139.0,39.416,-6.338,21.301,36.582,34.624,13.7,0.113,0.534,3.722,-139.0,23.228,91154.78,883.317,23.235,91157.914,883.621,24259,4.60,883.621,-11084507.0,5.842,1.850,0.0,0.0,0.0,3.970,2.428
24302,2,24302,43,10.286,-2.634,4.15,38.503,31.981,16.357,0.22,0.33,1.981,-139.0,0.933,-2.60,0.542,36.436,32.958,19.29,0.518,0.665,3.710,-139.0,23.231,91155.421,883.326,23.240,91158.164,883.106,24302,4.15,883.106,-10910874.0,-11.987,2.561,0.0,0.0,0.0,3.976,2.401
24338,2,24338,36,5.560,2.126,3.493,36.495,31.467,16.313,0.81,0.49,2.542,-139.0,-21.413,25.88,-4.203,30.93,30.225,14.615,0.581,0.240,2.785,-139.0,23.233,91155.585,883.401,23.235,91156.882,883.549,24338,3.493,883.549,-10775714.0,12.325,1.730,0.0,0.0,0.0,3.970,2.88
24381,2,24381,43,4.867,1.82,4.149,34.229,31.227,15.945,0.70,0.52,2.781,-139.0,-3.438,-2.900,1.998,28.631,29.11,15.302,0.76,0.111,1.237,-139.0,23.235,91157.859,883.274,23.231,91161.531,882.685,24381,4.149,882.685,-10611403.0,-20.114,3.521,0.0,0.0,0.0,3.976,2.481
24417,2,24417,36,2.63,3.605,3.448,32.145,31.256,15.726,0.42,0.28,2.465,-139.0,-5.182,4.235,-1.310,28.982,29.465,16.676,0.38,0.116,0.871,-139.0,23.237,91158.945,883.134,23.245,91160.242,882.707,24417,3.448,882.707,-10474641.0,0.623,1.981,0.0,0.0,0.0,3.963,2.62
24460,2,24460,43,-5.757,4.773,0.834,30.558,30.260,16.39,0.28,0.111,1.820,-139.0,0.315,0.495,0.111,28.646,29.640,14.571,0.243,0.123,0.496,-139.0,23.237,91157.859,883.31,23.235,91152.484,883.106,24460,0.834,883.106,-10418427.0,9.273,1.782,0.0,0.0,0.0,3.976,0.498
24528,2,24528,68,-6.84,5.132,0.766,28.804,29.424,15.232,0.69,0.15,1.84,-139.0,0.703,0.265,0.205,27.667,28.778,14.995,0.29,0.30,0.30,-139.0,23.235,91156.984,883.45,23.231,91153.773,883.176,24528,0.766,883.176,-10472848.0,1.39,1.969,0.0,0.0,0.0,3.970,0.458
