millis(),Current_state,Calculated_flight_time,Time_since_last_log,IMU_accel_X,IMU_accel_Y,IMU_accel_Z,IMU_mag_X,IMU_mag_Y,IMU_mag_Z,IMU_gyro_X,IMU_gyro_Y,IMU_gyro_Z,IMU_temp,Raw_IMU_accel_X,Raw_IMU_accel_Y,Raw_IMU_accel_Z,Raw_IMU_mag_X,Raw_IMU_mag_Y,Raw_IMU_mag_Z,Raw_IMU_gyro_X,Raw_IMU_gyro_Y,Raw_IMU_gyro_Z,Raw_IMU_temp,BARO_temp,BARO_press,BARO_alt,Raw_BARO_temp,Raw_BARO_press,Raw_BARO_alt,Velocity_lastUpdate,Velocity_lastZAccel,Velocity_lastAlt,Velocity_inte,Velocity_diff,Velocity_est,Est_apogee,Target_air_brake_angle,Air_brake_angle,Battery_voltage,Z_accel_times_burnoutMass
4285,2,4285,4285,-7.270,-4.239,-4.914,57.59,30.306,53.133,0.395,0.210,0.170,-523.0,-7.558,-4.63,-5.431,57.907,31.788,51.169,0.558,0.279,0.481,-523.0,11.290,90400.460,952.107,11.301,90396.992,951.749,4285,-4.914,951.749,0.0,0.0,0.0,0.0,0.0,0.0,4.28,-3.47
4334,2,4334,49,-7.385,-4.238,-5.7,57.477,30.935,52.247,0.419,0.226,0.185,-523.0,-8.262,-4.666,-5.165,58.345,32.66,50.570,0.313,0.352,0.42,-523.0,11.297,90399.492,952.113,11.306,90399.101,951.956,4334,-5.7,951.956,-243086.312,4.221,1.887,0.0,0.0,0.0,4.28,-3.105
4376,2,4376,42,-7.431,-4.354,-4.997,57.831,31.470,51.482,0.379,0.204,0.138,-523.0,-7.357,-4.795,-4.928,58.477,32.300,50.0,0.366,0.58,0.120,-523.0,11.300,90398.734,951.994,11.306,90400.7,952.80,4376,-4.997,952.80,-453194.687,2.954,1.918,0.0,0.0,0.0,4.34,-3.98
4412,2,4412,36,-7.326,-4.591,-4.987,57.874,31.949,50.798,0.405,0.165,0.67,-523.0,-6.783,-5.175,-4.785,57.687,32.753,49.751,0.342,0.101,0.218,-523.0,11.307,90399.312,951.986,11.324,90401.62,951.997,4412,-4.987,951.997,-632925.750,-2.298,2.74,0.0,0.0,0.0,4.34,-3.92
4454,2,4454,42,-7.451,-4.848,-4.990,57.942,32.610,50.192,0.394,0.194,0.13,-523.0,-7.293,-5.541,-4.641,57.293,34.142,49.473,0.390,0.182,0.118,-523.0,11.312,90399.609,951.975,11.320,90400.914,952.94,4454,-4.990,952.94,-842461.250,2.298,1.935,0.0,0.0,0.0,4.34,-3.94
4491,2,4491,37,-7.409,-4.956,-4.816,57.737,33.121,49.687,0.346,0.201,0.152,-523.0,-7.350,-4.601,-4.562,56.883,34.346,48.640,0.321,0.311,0.349,-523.0,11.316,90401.265,952.190,11.324,90405.289,952.824,4491,-4.816,952.824,-1023891.375,19.748,1.627,0.0,0.0,0.0,4.34,-2.986
4534,2,4534,43,-7.682,-5.537,-6.39,57.109,33.650,49.391,0.260,0.283,0.339,-523.0,-9.626,-7.573,-11.281,55.203,34.712,49.93,0.117,0.762,0.891,-523.0,11.322,90401.390,952.243,11.334,90399.710,952.218,4534,-6.39,952.218,-1257306.625,-14.107,2.733,0.0,0.0,0.0,4.41,-3.745
4570,2,4570,36,-7.455,-5.691,-5.853,56.33,34.258,49.315,0.137,0.437,0.503,-523.0,-6.223,-5.563,-3.995,53.98,35.340,49.619,0.248,0.829,0.937,-523.0,11.328,90401.93,952.270,11.338,90398.500,952.218,4570,-5.853,952.218,-1471382.375,0.0,2.0,0.0,0.0,0.0,4.34,-3.629
4612,2,4612,42,-7.436,-5.559,-5.782,54.697,34.755,49.564,0.6,0.585,0.630,-523.0,-6.690,-4.515,-4.433,51.8,35.238,50.993,0.378,0.839,0.855,-523.0,11.330,90399.890,952.419,11.334,90395.31,952.741,4612,-5.782,952.741,-1715740.625,12.461,1.727,0.0,0.0,0.0,4.34,-3.585
4648,2,4648,36,-7.350,-5.368,-5.758,52.882,34.861,50.55,0.259,0.715,0.939,-523.0,-6.862,-4.587,-4.519,48.216,34.668,51.929,0.872,0.832,1.662,-523.0,11.335,90397.804,952.570,11.343,90390.507,952.851,4648,-5.758,952.851,-1923485.0,3.48,1.916,0.0,0.0,0.0,4.41,-3.570
4691,2,4691,43,-6.747,-5.573,-5.462,50.406,34.685,51.280,0.579,0.826,1.119,-523.0,-4.335,-5.627,-3.83,44.504,33.469,54.764,-1.279,0.870,1.248,-523.0,11.340,90396.632,952.554,11.352,90399.406,952.741,4691,-5.462,952.741,-2164740.750,-2.552,2.82,0.0,0.0,0.0,4.34,-3.387
4727,2,4727,36,-5.800,-5.134,-3.821,47.848,34.320,52.648,0.655,0.805,1.39,-523.0,-4.888,-5.376,-3.76,42.414,32.885,55.933,0.498,0.656,0.494,-523.0,11.343,90395.210,952.559,11.347,90392.617,952.244,4727,-3.821,952.244,-2331860.750,-13.804,2.706,0.0,0.0,0.0,4.34,-2.369
4769,2,4769,42,-5.573,-5.85,-3.614,45.442,33.759,54.42,0.675,0.664,1.2,-523.0,-5.89,-5.319,-2.961,41.69,32.534,56.591,0.347,0.123,0.750,-523.0,11.343,90394.734,952.606,11.338,90396.85,952.452,4769,-3.614,952.452,-2488031.500,4.938,1.870,0.0,0.0,0.0,4.34,-2.241
4805,2,4805,36,-5.33,-5.340,-3.312,43.145,33.110,55.276,0.622,0.435,0.976,-523.0,-3.991,-5.793,-2.918,39.520,31.993,57.161,0.113,0.306,0.728,-523.0,11.347,90395.812,952.548,11.357,90400.460,952.452,4805,-3.312,952.452,-2612718.0,0.0,2.0,0.0,0.0,0.0,4.34,-2.53
4880,2,4880,75,-4.539,-5.480,-3.276,41.438,32.812,56.88,0.364,0.193,0.693,-523.0,-4.393,-5.283,-4.340,39.681,33.177,55.992,0.417,0.375,0.244,-523.0,11.349,90396.750,952.567,11.352,90395.179,952.947,4880,-3.276,952.947,-2859775.750,6.610,1.834,0.0,0.0,0.0,4.34,-2.31
4916,2,4916,36,-4.526,-5.527,-3.461,40.558,32.776,56.313,0.73,0.15,0.544,-523.0,-4.271,-5.864,-4.9,40.105,33.294,55.890,0.171,0.172,0.503,-523.0,11.346,90396.992,952.548,11.338,90400.617,952.644,4916,-3.461,952.644,-2981051.250,-8.426,2.338,0.0,0.0,0.0,4.41,-2.146
4959,2,4959,43,-4.360,-5.794,-3.449,39.783,32.934,56.275,0.61,0.149,0.558,-523.0,-4.55,-6.711,-3.19,38.541,33.674,55.743,0.178,0.14,0.563,-523.0,11.346,90397.929,952.669,11.343,90397.296,952.851,4959,-3.449,952.851,-3129643.0,4.810,1.873,0.0,0.0,0.0,4.34,-2.139
4995,2,4995,36,-4.218,-6.19,-3.569,39.137,33.224,55.951,0.176,0.189,0.555,-523.0,-4.378,-6.446,-3.557,37.839,33.981,54.969,0.226,0.80,0.738,-523.0,11.346,90397.695,952.628,11.343,90394.882,952.244,4995,-3.569,952.244,-3255983.500,-16.852,3.22,0.0,0.0,0.0,4.34,-2.213
5037,2,5037,42,-4.172,-6.298,-3.451,38.453,33.580,55.533,0.191,0.81,0.611,-523.0,-3.761,-7.185,-2.330,36.100,33.776,55.71,0.34,0.236,1.9,-523.0,11.348,90397.898,952.650,11.366,90401.523,952.562,5037,-3.451,952.562,-3403411.0,7.577,1.814,0.0,0.0,0.0,4.34,-2.140
5073,2,5073,36,-4.15,-6.710,-3.11,37.299,33.726,55.200,0.131,0.61,0.729,-523.0,-3.610,-7.343,-2.143,33.908,33.908,54.326,0.116,0.339,0.833,-523.0,11.348,90397.578,952.614,11.352,90393.523,952.768,5073,-3.11,952.768,-3519750.500,5.715,1.853,0.0,0.0,0.0,4.34,-1.867
5116,2,5116,43,-3.795,-6.871,-2.966,35.779,33.665,54.837,0.178,0.96,0.781,-523.0,-3.172,-6.668,-3.780,32.505,32.987,54.77,0.403,0.2,0.761,-523.0,11.354,90395.234,952.620,11.366,90388.992,952.672,5116,-2.966,952.672,-3648278.250,-2.232,2.71,0.0,0.0,0.0,4.34,-1.839
5152,2,5152,36,-3.401,-6.818,-3.355,34.416,33.580,54.504,0.197,0.63,0.761,-523.0,-2.81,-6.446,-4.964,31.730,33.250,54.77,0.273,0.180,0.463,-523.0,11.358,90393.828,952.625,11.366,90390.203,952.879,5152,-3.355,952.879,-3762059.250,5.745,1.852,0.0,0.0,0.0,4.28,-2.80
5194,2,5194,42,-2.984,-6.925,-3.569,32.689,33.399,54.235,0.20,0.209,0.832,-523.0,-2.297,-6.984,-4.627,29.201,33.75,53.624,0.655,0.651,1.97,-523.0,11.365,90393.765,952.694,11.375,90394.578,952.589,5194,-3.569,952.589,-3907466.750,-6.894,2.260,0.0,0.0,0.0,4.41,-2.213
5230,2,5230,36,-2.782,-7.77,-3.840,30.847,32.931,54.80,0.174,0.400,0.851,-523.0,-2.749,-7.946,-3.686,26.892,31.438,54.296,-1.12,1.188,1.102,-523.0,11.365,90390.570,952.948,11.366,90385.523,953.830,5230,-3.840,953.830,-4040836.500,34.471,1.491,0.0,0.0,0.0,4.34,-2.381
5273,2,5273,43,-2.528,-7.224,-4.28,28.821,32.5,54.294,0.417,0.480,0.875,-523.0,-2.340,-8.75,-3.83,23.779,29.275,55.393,-1.97,0.742,0.952,-523.0,11.368,90386.484,953.408,11.366,90373.148,955.70,5273,-4.28,955.70,-4210016.500,28.825,1.536,0.0,0.0,0.0,4.34,-2.498
5314,2,5314,41,-2.87,-7.390,-3.679,26.465,30.748,54.697,0.690,0.530,1.61,-523.0,0.969,-7.501,-2.35,20.724,26.702,56.94,0.962,0.250,1.694,-523.0,11.369,90379.703,954.70,11.370,90355.46,955.980,5314,-3.679,955.980,-4368031.500,22.200,1.600,0.0,0.0,0.0,4.34,-2.281
5362,2,5362,48,-1.819,-7.309,-3.145,23.569,28.626,55.358,-1.64,0.753,1.293,-523.0,0.739,-6.37,-2.294,17.246,22.639,57.380,-1.596,0.935,1.619,-523.0,11.370,90370.414,954.877,11.375,90343.726,956.917,5362,-3.145,956.917,-4531834.0,19.517,1.630,0.0,0.0,0.0,4.34,-1.950
5404,2,5404,42,-1.484,-7.286,-2.276,20.684,25.749,56.237,-1.133,0.737,1.17,-523.0,0.624,-6.869,0.284,14.776,18.693,58.23,0.998,0.571,0.280,-523.0,11.369,90362.15,955.743,11.370,90352.625,956.917,5404,-2.276,956.917,-4645705.0,0.0,2.0,0.0,0.0,0.0,4.41,-1.411
5440,2,5440,36,0.855,-7.179,-1.428,18.199,23.37,57.106,0.906,0.486,0.741,-523.0,0.394,-7.415,0.555,14.469,17.874,58.637,0.121,0.68,0.279,-523.0,11.371,90355.429,956.402,11.375,90352.625,957.124,5440,-1.428,957.124,-4712401.0,5.747,1.852,0.0,0.0,0.0,4.41,0.885
5488,2,5488,48,0.403,-6.420,-1.465,16.714,21.230,57.676,0.528,0.289,0.417,-523.0,0.78,-4.278,-3.270,16.354,20.242,58.243,0.795,0.241,0.664,-523.0,11.373,90351.328,956.876,11.375,90352.625,957.441,5488,-1.465,957.441,-4781861.0,6.599,1.834,0.0,0.0,0.0,4.47,0.908
5525,2,5525,37,0.347,-5.847,-1.686,15.893,20.116,57.909,0.286,0.165,0.30,-523.0,0.689,-4.637,-3.141,16.617,21.134,57.263,0.246,0.368,0.243,-523.0,11.374,90348.578,957.66,11.375,90341.312,956.931,5525,-1.686,956.931,-4840184.0,-13.764,2.703,0.0,0.0,0.0,4.41,-1.46
5568,2,5568,43,0.40,-5.942,-1.603,16.9,20.99,57.892,0.145,0.2,0.636,-523.0,1.198,-6.510,-1.877,17.831,22.551,57.293,0.562,0.119,-1.716,-523.0,11.373,90350.789,956.986,11.370,90354.742,956.518,5568,-1.603,956.518,-4910928.0,-9.623,2.405,0.0,0.0,0.0,4.47,0.994
5605,2,5605,37,0.41,-5.603,-2.180,16.980,21.359,57.722,0.352,0.101,0.998,-523.0,-1.33,-5.175,-3.169,19.628,24.992,57.176,0.37,0.50,-2.87,-523.0,11.375,90350.757,956.763,11.380,90352.476,955.801,5605,-2.180,955.801,-4980937.500,-19.369,3.387,0.0,0.0,0.0,4.41,-1.352
5646,2,5646,41,0.526,-5.56,-2.990,18.599,23.80,57.404,0.298,0.161,-1.266,-523.0,-2.31,-4.680,-3.492,22.566,26.483,57.44,0.149,0.369,-1.618,-523.0,11.377,90351.421,956.396,11.384,90355.945,955.291,5646,-2.990,955.291,-5086946.500,-12.446,2.595,0.0,0.0,0.0,4.41,-1.854
5682,2,5682,36,0.758,-5.148,-2.990,20.143,24.530,57.278,0.73,0.126,-1.475,-523.0,-1.234,-4.737,-3.270,24.71,27.491,57.614,0.328,0.62,-1.710,-523.0,11.379,90353.867,955.740,11.384,90364.851,954.160,5682,-2.990,954.160,-5194603.0,-31.397,18.219,0.0,0.0,0.0,4.47,-1.854
5725,2,5725,43,-1.303,-5.191,-2.878,22.320,25.925,57.354,0.132,0.63,-1.896,-523.0,-3.416,-4.852,-2.581,27.506,28.105,57.643,0.785,0.56,-2.349,-523.0,11.382,90360.625,955.205,11.393,90375.109,954.257,5725,-2.878,954.257,-5320785.0,2.245,1.936,0.0,0.0,0.0,4.47,-1.784
5761,2,5761,36,-2.198,-4.770,-2.844,24.858,26.933,57.831,0.405,0.243,-1.939,-523.0,-3.273,-4.407,-1.705,30.517,27.594,59.675,0.802,0.777,-1.933,-523.0,11.385,90363.789,954.731,11.384,90370.585,954.147,5761,-2.844,954.147,-5423789.500,-3.50,2.100,0.0,0.0,0.0,4.41,-1.763
5803,2,5803,42,-2.690,-4.331,-2.984,27.728,27.351,58.538,0.552,0.450,-1.708,-523.0,-3.495,-2.979,-3.873,33.981,27.82,60.713,0.698,0.984,0.928,-523.0,11.387,90369.890,954.442,11.389,90382.960,954.354,5803,-2.984,954.354,-5546193.0,4.926,1.871,0.0,0.0,0.0,4.41,-1.850
5839,2,5839,36,-3.441,-3.922,-2.777,30.602,27.363,59.593,0.653,0.598,-1.658,-523.0,-5.785,-2.634,-2.459,36.933,26.541,62.320,0.654,-1.114,-1.369,-523.0,11.388,90375.507,953.949,11.389,90384.15,952.824,5839,-2.777,952.824,-5649921.500,-42.487,-2.641,0.0,0.0,0.0,4.41,-1.722
5913,2,5913,74,-4.197,-3.43,-3.92,35.171,26.933,60.894,0.606,0.971,-1.748,-523.0,-5.17,0.344,-4.842,46.916,25.343,64.118,0.91,-1.926,-2.162,-523.0,11.389,90380.101,953.756,11.389,90387.789,953.196,5913,-3.92,953.196,-5867125.0,5.23,1.869,0.0,0.0,0.0,4.41,-1.917
5950,2,5950,37,-4.752,-2.37,-3.682,39.938,26.287,62.125,0.486,-1.163,-1.470,-523.0,-6.187,0.179,-5.531,51.344,24.875,63.797,0.185,-1.13,0.959,-523.0,11.384,90382.632,953.524,11.370,90387.789,953.100,5950,-3.682,953.100,-5992459.500,-2.609,2.84,0.0,0.0,0.0,4.41,-2.283
5993,2,5993,43,-5.851,-1.412,-3.962,44.361,25.667,62.931,0.444,-1.158,-1.10,-523.0,-8.772,-1.284,-3.105,52.630,24.495,63.709,0.593,0.756,0.368,-523.0,11.383,90386.765,953.254,11.380,90391.257,952.796,5993,-3.962,952.796,-6156824.500,-7.54,2.268,0.0,0.0,0.0,4.47,-2.457
6029,2,6029,36,-6.307,-1.267,-3.801,48.266,25.68,63.633,0.285,-1.232,0.731,-523.0,-5.771,-2.254,-3.69,53.507,24.86,64.220,0.99,-1.350,0.468,-523.0,11.381,90387.937,952.945,11.380,90388.843,952.809,6029,-3.801,952.809,-6296577.500,0.367,1.989,0.0,0.0,0.0,4.47,-2.357
6074,2,6074,45,-6.635,0.783,-4.306,51.210,24.641,63.969,0.239,0.793,0.113,-523.0,-7.429,0.215,-4.986,51.651,24.408,64.1,0.428,1.80,2.852,-523.0,11.381,90389.804,953.20,11.389,90393.375,953.196,6074,-4.306,953.196,-6479021.0,8.592,1.795,0.0,0.0,0.0,4.47,-2.670
6110,2,6110,36,-6.887,-1.26,-4.441,50.979,24.317,64.405,0.490,0.313,1.67,-523.0,-6.273,-1.557,-5.517,45.761,23.721,66.296,-1.342,0.470,2.606,-523.0,11.380,90389.593,952.876,11.380,90386.734,952.480,6110,-4.441,952.480,-6636501.500,-19.900,3.481,0.0,0.0,0.0,4.41,-2.754
6158,2,6158,48,-6.423,-1.819,-3.913,49.406,23.586,65.153,0.643,0.142,1.303,-523.0,-3.869,-3.783,-2.889,43.481,21.221,67.538,0.955,0.156,0.222,-523.0,11.381,90391.406,952.937,11.380,90396.843,953.403,6158,-3.913,953.403,-6837034.500,19.233,1.634,0.0,0.0,0.0,4.47,-2.426
6194,2,6194,36,-5.917,-2.167,-3.676,47.489,22.595,66.211,0.822,0.314,1.509,-523.0,-6.245,-3.29,-1.920,43.42,19.541,69.0,-1.487,1.528,1.396,-523.0,11.380,90390.687,952.956,11.370,90387.640,952.893,6194,-3.676,952.893,-6973660.500,-14.170,2.739,0.0,0.0,0.0,4.41,-2.279
6236,2,6236,42,-5.660,-2.9,-3.366,44.726,21.166,67.509,0.912,0.552,1.633,-523.0,-4.486,-1.464,-1.518,39.695,16.939,70.710,0.349,0.162,1.90,-523.0,11.378,90389.578,953.56,11.370,90383.257,953.306,6236,-3.366,953.306,-7121570.500,9.848,1.771,0.0,0.0,0.0,4.41,-2.87
6272,2,6272,36,-4.974,-2.831,-2.796,41.943,19.538,68.883,0.979,0.526,1.378,-523.0,-3.998,-4.321,-2.136,37.737,16.267,70.871,0.763,0.951,1.577,-523.0,11.373,90387.62,953.180,11.366,90380.843,953.816,6272,-2.796,953.816,-7232509.0,14.141,1.702,0.0,0.0,0.0,4.41,-1.734
6315,2,6315,43,-4.545,-3.205,-2.394,39.847,17.664,69.903,0.698,0.478,1.126,-523.0,-4.127,-3.431,-3.507,35.282,14.352,71.397,0.62,0.229,1.346,-523.0,11.373,90386.367,953.469,11.380,90383.257,953.926,6315,-2.394,953.926,-7344121.500,2.566,1.928,0.0,0.0,0.0,4.47,-1.484
6352,2,6352,37,-4.898,-2.658,-1.952,37.848,16.211,70.496,0.489,0.528,1.599,-523.0,-5.635,-1.48,0.678,33.484,13.957,70.505,0.89,0.93,2.585,-523.0,11.373,90382.500,953.535,11.380,90377.523,953.733,6352,-1.952,953.733,-7424542.500,-5.217,2.185,0.0,0.0,0.0,4.34,-1.210
6427,2,6427,75,-4.518,-2.719,-1.803,36.179,14.481,71.169,0.291,0.167,1.107,-523.0,-4.342,-3.330,-1.174,34.697,10.888,72.361,0.497,0.275,-1.65,-523.0,11.375,90382.351,953.819,11.380,90386.882,954.313,6427,-1.803,954.313,-7565377.0,7.729,1.811,0.0,0.0,0.0,4.41,-1.118
6463,2,6463,36,-4.479,-2.518,-1.790,35.258,13.253,71.578,0.18,0.197,0.931,-523.0,-4.292,0.459,-1.454,35.92,10.800,72.756,1.17,0.13,0.212,-523.0,11.372,90381.929,953.918,11.357,90381.148,953.802,6463,-1.790,953.802,-7630057.500,-14.173,2.739,0.0,0.0,0.0,4.34,-1.110
6505,2,6505,42,-4.516,-2.136,-1.755,34.773,12.350,71.900,0.13,0.51,0.826,-523.0,-4.185,-2.411,-1.963,35.311,11.750,72.478,0.605,0.291,1.50,-523.0,11.372,90382.656,953.775,11.366,90384.468,953.100,6505,-1.755,953.100,-7704523.0,-16.730,3.7,0.0,0.0,0.0,4.41,-1.88
6547,2,6547,42,-4.388,-2.221,-1.336,34.612,11.698,72.186,0.35,0.319,0.898,-523.0,-3.488,-3.854,-1.411,34.478,11.93,72.829,0.176,-1.112,1.710,-523.0,11.371,90383.804,953.527,11.375,90388.992,952.685,6547,-1.336,952.685,-7769461.0,-9.861,2.420,0.0,0.0,0.0,4.34,0.828
6583,2,6583,36,-4.187,-2.403,-1.824,34.533,10.777,72.633,0.1,0.310,1.96,-523.0,-4.630,-1.959,-3.119,33.89,9.353,72.741,0.98,0.141,3.573,-523.0,11.369,90385.375,953.419,11.370,90385.375,953.196,6583,-1.824,953.196,-7826363.0,14.187,1.701,0.0,0.0,0.0,4.34,-1.131
6626,2,6626,43,-4.2,-2.684,-1.915,34.30,9.871,72.952,0.70,0.416,1.988,-523.0,-3.416,-4.737,-1.626,32.183,6.357,73.954,0.841,0.806,3.394,-523.0,11.369,90386.460,953.30,11.375,90392.312,952.369,6626,-1.915,952.369,-7906768.500,-19.240,3.365,0.0,0.0,0.0,4.41,-1.187
6662,2,6662,36,-4.19,-3.584,-2.15,33.300,8.254,73.452,0.356,0.342,2.82,-523.0,-4.378,-4.960,-1.956,31.438,2.718,75.255,0.415,0.356,0.682,-523.0,11.372,90389.117,952.849,11.375,90394.429,952.893,6662,-2.15,952.893,-7977522.0,14.555,1.696,0.0,0.0,0.0,4.41,-1.249
6705,2,6705,43,-4.305,-3.797,-2.177,32.142,5.758,74.203,0.516,0.199,2.334,-523.0,-5.613,-3.474,-2.775,29.523,0.730,76.235,-1.404,0.422,2.311,-523.0,11.374,90391.109,952.769,11.375,90394.429,952.700,6705,-2.177,952.700,-8067681.500,-4.489,2.155,0.0,0.0,0.0,4.34,-1.350
6742,2,6742,37,-4.160,-3.949,-2.58,31.113,2.733,74.902,0.694,0.62,2.625,-523.0,-2.763,-4.615,0.815,29.333,-4.33,76.322,0.711,0.424,3.167,-523.0,11.375,90390.835,952.752,11.380,90387.640,952.603,6742,-2.58,952.603,-8146057.500,-2.608,2.84,0.0,0.0,0.0,4.41,-1.276
6789,2,6789,47,-3.872,-4.332,-1.673,30.482,0.324,75.843,0.583,0.242,2.136,-523.0,-3.187,-3.876,-1.195,29.932,-5.933,77.448,0.453,0.761,1.127,-523.0,11.377,90393.554,952.692,11.380,90398.953,952.893,6789,-1.673,952.893,-8233774.0,6.160,1.844,0.0,0.0,0.0,4.41,-1.38
6826,2,6826,37,-3.470,-4.585,-1.953,30.140,-2.434,76.506,0.204,0.72,1.555,-523.0,-1.406,-6.1,-3.26,30.473,-4.194,77.272,3.100,0.44,0.486,-523.0,11.378,90393.523,952.716,11.380,90392.164,952.493,6826,-1.953,952.493,-8300888.500,-10.806,2.479,0.0,0.0,0.0,4.41,-1.211
6869,2,6869,43,-3.458,-4.307,-2.513,29.733,-2.122,76.366,0.922,0.138,1.501,-523.0,-4.321,-3.567,-4.756,29.406,4.282,74.554,3.174,0.26,0.416,-523.0,11.380,90393.312,952.760,11.384,90393.375,953.113,6869,-2.513,953.113,-8396944.0,14.415,1.698,0.0,0.0,0.0,4.34,-1.558
6937,2,6937,68,-2.671,-5.116,-2.644,29.678,0.470,75.457,1.657,0.237,1.105,-523.0,-1.679,-7.523,-3.428,29.245,12.233,71.689,2.268,0.74,0.330,-523.0,11.381,90393.578,952.755,11.384,90395.789,952.672,6937,-2.644,952.672,-8572325.0,-6.480,2.241,0.0,0.0,0.0,4.41,-1.639
6979,2,6979,42,-2.467,-6.11,-3.214,29.652,4.545,74.136,2.187,0.124,0.436,-523.0,-1.744,-9.87,-3.665,29.201,16.340,69.716,1.939,0.142,0.178,-523.0,11.381,90394.976,952.711,11.375,90394.578,952.382,6979,-3.214,952.382,-8695361.0,-6.907,2.261,0.0,0.0,0.0,4.41,-1.993
7016,2,7016,37,-2.337,-6.832,-3.609,29.514,9.643,72.218,2.406,0.126,0.199,-523.0,-2.533,-7.982,-3.169,29.245,19.555,67.860,1.550,0.494,0.57,-523.0,11.380,90396.85,952.650,11.375,90404.539,952.589,7016,-3.609,952.589,-8821599.0,5.605,1.856,0.0,0.0,0.0,4.34,-2.238
7058,2,7058,42,-2.512,-7.468,-3.906,28.857,14.665,70.96,1.811,0.297,0.54,-523.0,-2.282,-9.181,-4.512,27.185,20.914,66.661,0.124,0.897,0.781,-523.0,11.378,90396.781,952.650,11.370,90395.632,952.493,7058,-3.906,952.493,-8979428.0,-2.297,2.74,0.0,0.0,0.0,4.34,-2.422
7094,2,7094,36,-2.170,-8.460,-3.688,28.216,17.892,68.509,1.18,0.583,0.3,-523.0,-2.612,-8.528,-3.665,26.205,20.418,66.617,0.793,1.456,0.671,-523.0,11.377,90396.78,952.548,11.380,90389.898,952.603,7094,-3.688,952.603,-9116131.0,3.63,1.915,0.0,0.0,0.0,4.34,-2.287
7137,2,7137,43,-2.269,-8.416,-3.590,26.919,18.959,67.641,0.241,0.714,0.17,-523.0,-2.175,-7.300,-2.940,22.756,17.567,67.348,-1.615,0.584,0.434,-523.0,11.379,90394.453,952.575,11.393,90387.640,952.809,7137,-3.590,952.809,-9272625.0,4.796,1.874,0.0,0.0,0.0,4.34,-2.226
7173,2,7173,36,-2.156,-8.520,-3.350,25.340,18.740,67.342,0.357,0.810,0.98,-523.0,-1.177,-9.611,-2.466,21.309,15.244,68.225,-1.53,0.617,0.226,-523.0,11.381,90395.265,952.540,11.389,90398.656,952.203,7173,-3.350,952.203,-9397570.0,-16.835,3.20,0.0,0.0,0.0,4.34,-2.77
7215,2,7215,42,-2.289,-8.450,-4.153,23.811,17.778,67.462,0.713,0.718,0.167,-523.0,-3.201,-7.630,-7.182,21.601,14.747,68.459,0.229,0.36,-1.386,-523.0,11.384,90392.70,952.647,11.389,90388.539,953.127,7215,-4.153,953.127,-9555158.0,21.994,1.602,0.0,0.0,0.0,4.34,-2.575
7251,2,7251,36,-1.945,-8.638,-3.992,23.10,16.556,67.930,0.804,0.451,0.150,-523.0,0.559,-10.121,-3.708,23.180,14.805,69.0,0.333,0.437,0.699,-523.0,11.390,90391.554,952.716,11.398,90393.70,952.838,7251,-3.992,952.838,-9701785.0,-8.43,2.318,0.0,0.0,0.0,4.34,-2.475
7294,2,7294,43,-1.995,-8.437,-3.900,22.525,15.536,68.418,0.408,0.61,0.404,-523.0,-2.864,-7.523,-3.205,23.779,15.317,69.58,1.187,0.493,0.597,-523.0,11.394,90393.312,952.862,11.403,90398.656,953.333,7294,-3.900,953.333,-9871490.0,11.531,1.742,0.0,0.0,0.0,4.41,-2.418
7330,2,7330,36,-1.864,-8.405,-4.170,22.961,15.562,68.614,0.20,0.4,0.466,-523.0,-1.521,-7.142,-4.289,24.934,17.699,68.327,0.529,0.255,0.125,-523.0,11.394,90394.609,952.766,11.393,90394.125,952.328,7330,-4.170,952.328,-10016773.0,-27.943,7.184,0.0,0.0,0.0,4.34,-2.586
7373,2,7373,43,-1.945,-8.44,-4.14,23.250,15.866,68.459,0.252,0.28,0.249,-523.0,-1.579,-7.802,-1.683,22.756,16.764,67.451,0.109,0.779,1.312,-523.0,11.398,90393.7,952.953,11.407,90390.656,953.141,7373,-4.14,953.141,-10192744.0,18.918,1.637,0.0,0.0,0.0,4.34,-2.489
7420,2,7420,47,-1.470,-8.263,-3.185,23.434,16.460,68.237,0.561,0.182,0.183,-523.0,0.825,-8.729,-3.40,22.522,17.714,67.348,1.313,-1.18,0.777,-523.0,11.400,90392.984,952.813,11.398,90388.390,952.425,7420,-3.185,952.425,-10361940.0,-15.243,2.842,0.0,0.0,0.0,4.34,-1.975
7464,2,7464,44,-1.562,-7.909,-3.632,23.352,17.18,67.801,0.472,0.67,0.422,-523.0,-1.19,-8.348,-5.940,22.771,17.597,66.822,0.777,0.141,0.494,-523.0,11.400,90392.984,952.750,11.398,90393.70,952.521,7464,-3.632,952.521,-10511934.0,2.193,1.938,0.0,0.0,0.0,4.41,-2.252
7500,2,7500,36,-1.272,-8.783,-3.807,22.800,16.802,67.594,0.71,0.256,0.813,-523.0,-1.414,-11.894,-4.81,21.17,14.235,68.21,-1.532,1.124,1.357,-523.0,11.398,90391.171,952.813,11.393,90389.601,953.651,7500,-3.807,953.651,-10645846.0,31.377,1.515,0.0,0.0,0.0,4.47,-2.360
7542,2,7542,42,-1.65,-8.753,-3.490,21.581,15.667,67.711,0.261,0.234,1.21,-523.0,0.488,-6.991,-2.703,18.839,12.28,68.912,0.420,0.144,1.165,-523.0,11.400,90390.679,952.995,11.403,90391.710,953.237,7542,-3.490,953.237,-10799092.0,-9.849,2.419,0.0,0.0,0.0,4.41,-2.164
7578,2,7578,36,0.750,-8.855,-3.752,20.420,13.922,68.117,0.630,0.247,1.230,-523.0,0.7,-8.312,-2.997,16.954,8.38,69.482,-1.737,0.843,2.355,-523.0,11.399,90389.773,953.122,11.403,90386.125,953.775,7578,-3.752,953.775,-10929464.0,14.953,1.690,0.0,0.0,0.0,4.47,-2.327
7621,2,7621,43,0.658,-8.690,-3.975,18.550,10.491,68.509,-1.169,0.663,1.757,-523.0,0.366,-7.903,-4.153,13.168,0.555,69.307,-1.377,1.61,3.413,-523.0,11.400,90388.171,953.287,11.403,90380.390,953.251,7621,-3.975,953.251,-11095619.0,-12.185,2.576,0.0,0.0,0.0,4.47,-2.465
7657,2,7657,36,0.147,-8.72,-3.122,16.281,5.741,68.912,-1.320,0.737,2.343,-523.0,1.536,-5.261,-1.676,11.429,-6.153,68.839,-1.532,0.513,3.426,-523.0,11.402,90386.101,953.620,11.407,90382.656,954.188,7657,-3.122,954.188,-11223381.0,26.16,1.561,0.0,0.0,0.0,4.41,-1.936
7699,2,7699,42,0.462,-4.381,-2.971,14.299,0.181,69.169,-1.773,0.517,2.832,-523.0,1.636,6.561,-3.327,11.107,-15.375,69.307,-3.796,0.25,3.803,-523.0,11.404,90386.304,953.623,11.407,90390.656,953.665,7699,-2.971,953.665,-11351362.0,-12.449,2.596,0.0,0.0,0.0,4.47,-1.842
7735,2,7735,36,1.336,-3.774,-2.667,13.37,-7.623,69.0,-2.195,0.358,3.130,-523.0,3.883,-3.955,-1.181,12.525,-25.182,68.64,-2.531,0.649,2.655,-523.0,11.404,90385.828,953.607,11.403,90389.296,953.154,7735,-2.667,953.154,-11452868.0,-14.187,2.741,0.0,0.0,0.0,4.47,-1.654
7779,2,7779,44,2.208,-3.0,-2.374,13.75,-16.223,68.412,-2.628,0.22,3.300,-523.0,4.350,-4.443,-1.533,17.144,-34.960,66.544,-3.903,0.839,3.201,-523.0,11.405,90385.585,953.483,11.407,90384.921,953.154,7779,-2.374,953.154,-11563791.0,0.0,2.0,0.0,0.0,0.0,4.47,-1.472
7820,2,7820,41,2.875,-1.658,-1.963,14.826,-24.861,67.202,-3.38,0.343,3.122,-523.0,2.971,-1.191,-2.100,21.923,-42.633,63.256,-3.428,0.765,2.525,-523.0,11.407,90387.820,953.546,11.412,90391.562,953.568,7820,-1.963,953.568,-11652730.0,10.103,1.767,0.0,0.0,0.0,4.41,-1.217
7856,2,7856,36,2.803,0.367,-2.27,17.880,-33.417,65.296,-3.425,0.725,3.40,-523.0,1.177,1.191,-1.992,26.702,-48.933,59.310,-3.469,-1.400,3.19,-523.0,11.408,90388.945,953.298,11.412,90388.242,952.948,7856,-2.27,952.948,-11724569.0,-17.237,3.70,0.0,0.0,0.0,4.41,-1.257
7900,2,7900,44,2.656,0.855,-1.597,22.513,-41.242,62.464,-3.379,-1.116,2.816,-523.0,0.897,4.120,-1.181,34.273,-54.501,55.144,-3.567,-1.929,2.682,-523.0,11.411,90389.601,953.113,11.421,90393.976,952.741,7900,-1.597,952.741,-11804318.0,-4.699,2.164,0.0,0.0,0.0,4.47,0.990
7969,2,7969,69,1.885,1.160,-1.886,28.249,-47.939,58.436,-2.947,0.877,2.446,-523.0,0.28,6.123,-2.624,41.201,-58.667,47.924,0.367,0.545,0.803,-523.0,11.413,90390.812,953.6,11.412,90395.335,952.618,7969,-1.886,952.618,-11924524.0,-1.790,2.56,0.0,0.0,0.0,4.41,-1.169
8011,2,8011,42,0.888,2.768,-2.113,33.139,-52.680,54.586,-2.74,0.726,1.677,-523.0,0.631,3.596,-2.667,41.596,-58.667,47.296,0.458,0.82,0.644,-523.0,11.410,90392.468,952.896,11.393,90393.218,952.603,8011,-2.113,952.603,-12008517.0,0.341,2.10,0.0,0.0,0.0,4.47,-1.310
8048,2,8048,37,0.582,4.9,-1.879,36.708,-55.860,51.596,-1.277,0.621,0.973,-523.0,1.442,5.17,0.930,39.769,-58.535,48.304,0.558,0.240,0.992,-523.0,11.406,90392.984,952.689,11.393,90394.125,952.534,8048,-1.879,952.534,-12082378.0,-1.864,2.59,0.0,0.0,0.0,4.41,-1.165
8097,2,8097,49,0.435,4.416,-1.870,39.23,-57.570,49.517,0.523,0.339,0.197,-523.0,0.437,3.223,-1.949,38.278,-57.483,48.918,0.299,0.7,0.859,-523.0,11.404,90393.281,952.581,11.403,90389.750,952.410,8097,-1.870,952.410,-12174249.0,-2.532,2.82,0.0,0.0,0.0,4.47,-1.159
8133,2,8133,36,0.356,4.226,-2.41,39.345,-58.76,48.371,0.246,0.46,0.610,-523.0,0.502,3.172,-2.35,35.881,-57.30,49.415,0.283,0.464,-1.361,-523.0,11.400,90392.164,952.578,11.398,90388.390,952.727,8133,-2.41,952.727,-12244666.0,8.809,1.790,0.0,0.0,0.0,4.41,-1.265
8176,2,8176,43,0.654,3.546,-1.613,37.936,-57.749,48.810,0.269,0.119,0.880,-523.0,1.521,2.720,0.485,34.156,-57.30,50.116,0.253,0.182,0.544,-523.0,11.397,90392.343,952.603,11.398,90396.234,952.741,8176,-1.613,952.741,-12323250.0,0.320,1.990,0.0,0.0,0.0,4.41,-1.0
8212,2,8212,36,1.122,3.36,-1.290,36.273,-57.325,49.201,0.161,0.21,0.790,-523.0,1.708,1.48,-1.52,33.279,-56.547,49.254,0.81,0.620,0.196,-523.0,11.400,90391.625,952.733,11.407,90389.601,953.251,8212,-1.290,953.251,-12375526.0,14.170,1.701,0.0,0.0,0.0,4.47,0.800
8254,2,8254,42,1.224,2.475,-1.600,34.440,-56.740,49.503,0.294,0.285,0.832,-523.0,1.952,2.210,-2.480,30.605,-55.612,49.809,1.226,1.80,-1.200,-523.0,11.403,90389.773,952.857,11.407,90384.921,953.154,8254,-1.600,953.154,-12436243.0,-2.310,2.74,0.0,0.0,0.0,4.47,0.992
8290,2,8290,36,1.547,2.153,-1.692,32.423,-56.4,49.961,0.317,0.463,0.741,-523.0,2.53,1.615,-2.408,28.193,-53.800,51.213,0.413,0.897,0.403,-523.0,11.404,90389.476,952.923,11.407,90388.242,952.741,8290,-1.692,952.741,-12495522.0,-11.474,2.524,0.0,0.0,0.0,4.47,-1.49
8333,2,8333,43,1.968,2.239,-1.592,30.815,-55.472,50.274,0.101,0.616,0.499,-523.0,2.605,3.603,-1.533,27.842,-54.370,50.979,0.795,0.299,0.153,-523.0,11.406,90389.234,953.53,11.412,90387.179,953.375,8333,-1.592,953.375,-12566143.0,14.750,1.693,0.0,0.0,0.0,4.41,0.987
8370,2,8370,37,2.243,2.291,-1.939,29.257,-54.966,50.149,0.64,0.692,0.482,-523.0,2.900,2.979,-2.222,26.366,-54.501,49.488,0.439,0.564,0.458,-523.0,11.410,90388.757,953.94,11.416,90393.820,952.948,8370,-1.939,952.948,-12631478.0,-11.553,2.530,0.0,0.0,0.0,4.41,-1.202
8412,2,8412,42,2.442,2.887,-2.52,27.620,-54.589,50.137,0.75,0.673,0.549,-523.0,2.699,4.27,-1.619,25.95,-54.662,49.196,0.26,0.527,0.532,-523.0,11.411,90388.726,953.199,11.412,90389.445,953.775,8412,-2.52,953.775,-12715320.0,19.698,1.628,0.0,0.0,0.0,4.34,-1.273
8482,2,8482,70,2.720,3.346,-1.929,25.869,-54.223,49.529,0.313,0.621,0.506,-523.0,3.345,4.508,-1.863,21.850,-53.785,46.769,0.721,0.816,0.983,-523.0,11.411,90390.140,953.174,11.407,90392.15,953.30,8482,-1.929,953.30,-12854705.0,-10.644,2.469,0.0,0.0,0.0,4.41,-1.196
8523,2,8523,41,3.122,3.854,-1.816,23.946,-54.7,48.371,0.408,0.660,0.641,-523.0,4.63,4.156,-1.841,18.576,-52.718,45.425,0.61,1.92,-1.81,-523.0,11.407,90389.984,953.108,11.389,90387.484,952.410,8523,-1.816,952.410,-12931488.0,-15.120,2.830,0.0,0.0,0.0,4.34,-1.126
8559,2,8559,36,3.715,3.994,-1.936,21.680,-53.402,47.35,0.218,0.795,0.831,-523.0,5.570,4.299,-2.136,16.515,-51.344,44.299,0.156,0.978,-1.99,-523.0,11.403,90390.15,953.61,11.389,90387.335,953.141,8559,-1.936,953.141,-12999037.0,20.299,1.621,0.0,0.0,0.0,4.34,-1.200
8602,2,8602,43,4.203,4.253,-2.40,19.90,-52.510,45.779,0.151,0.813,0.888,-523.0,5.340,4.278,-2.739,13.417,-50.43,43.203,0.104,0.650,0.745,-523.0,11.400,90388.476,953.122,11.403,90386.125,953.251,8602,-2.40,953.251,-13084536.0,2.564,1.928,0.0,0.0,0.0,4.34,-1.265
8638,2,8638,36,4.922,4.205,-2.275,16.483,-51.435,44.425,0.173,0.763,0.903,-523.0,6.295,3.783,-2.796,12.57,-49.283,42.429,0.138,0.279,0.609,-523.0,11.400,90386.460,953.182,11.412,90379.335,954.78,8638,-2.275,954.78,-13162215.0,22.967,1.592,0.0,0.0,0.0,4.34,-1.411
8680,2,8680,42,5.652,4.22,-2.394,14.422,-50.488,43.358,0.49,0.633,0.759,-523.0,6.991,3.596,-2.459,11.546,-49.49,41.435,0.101,0.167,0.259,-523.0,11.399,90385.78,953.350,11.403,90385.70,953.871,8680,-2.394,953.871,-13260288.0,-4.924,2.173,0.0,0.0,0.0,4.41,-1.484
8716,2,8716,36,6.29,4.67,-2.546,12.870,-49.587,42.493,0.17,0.467,0.593,-523.0,5.950,4.378,-2.602,10.815,-48.216,41.99,0.274,0.262,0.254,-523.0,11.404,90384.109,953.519,11.412,90382.656,953.251,8716,-2.546,953.251,-13349234.0,-17.222,3.68,0.0,0.0,0.0,4.34,-1.579
8760,2,8760,44,5.930,4.8,-2.472,11.753,-49.29,41.753,0.78,0.275,0.435,-523.0,5.75,4.5,-1.762,10.932,-48.553,40.602,0.324,0.14,0.309,-523.0,11.407,90382.718,953.604,11.407,90380.390,953.568,8760,-2.472,953.568,-13459652.0,7.209,1.822,0.0,0.0,0.0,4.34,-1.532
8796,2,8796,36,6.72,3.596,-2.239,11.31,-48.707,41.201,0.154,0.128,0.354,-523.0,6.51,2.218,-1.576,9.807,-48.436,40.441,0.485,0.84,0.339,-523.0,11.408,90382.687,953.667,11.407,90385.976,953.568,8796,-2.239,953.568,-13544464.0,0.0,2.0,0.0,0.0,0.0,4.34,-1.388
8838,2,8838,42,5.846,3.411,-2.218,10.605,-48.444,40.648,0.203,0.64,0.296,-523.0,5.161,2.857,-2.688,9.923,-47.968,39.666,0.382,0.40,0.319,-523.0,11.408,90384.703,953.566,11.412,90389.445,953.568,8838,-2.218,953.568,-13638074.0,0.0,2.0,0.0,0.0,0.0,4.21,-1.375
8874,2,8874,36,5.431,3.175,-2.297,10.195,-48.190,40.172,0.287,0.24,0.271,-523.0,4.917,2.419,-2.854,9.500,-47.778,39.52,0.521,0.32,0.135,-523.0,11.410,90383.984,953.546,11.412,90381.445,953.775,8874,-2.297,953.775,-13719345.0,5.744,1.853,0.0,0.0,0.0,4.34,-1.424
8918,2,8918,44,5.306,2.630,-2.144,9.926,-48.61,39.494,0.468,0.24,0.179,-523.0,5.326,1.651,-1.841,9.470,-47.573,37.708,0.628,0.17,0.207,-523.0,11.411,90382.171,953.466,11.416,90373.601,952.851,8918,-2.144,952.851,-13817066.0,-21.8,3.704,0.0,0.0,0.0,4.34,-1.330
8987,2,8987,69,5.370,2.455,-2.363,9.549,-47.956,38.716,0.405,0.30,0.170,-523.0,5.398,3.129,-2.854,9.47,-48.26,36.714,0.10,0.290,0.263,-523.0,11.413,90381.328,953.463,11.416,90376.171,953.554,8987,-2.363,953.554,-13972588.0,10.184,1.765,0.0,0.0,0.0,4.34,-1.465
9030,2,9030,43,5.306,2.628,-2.711,9.301,-47.722,37.874,0.314,0.92,0.137,-523.0,5.728,3.86,-3.320,8.564,-47.266,36.232,0.27,0.228,0.176,-523.0,11.412,90381.359,953.527,11.403,90386.125,953.885,9030,-2.711,953.885,-14081700.0,7.708,1.812,0.0,0.0,0.0,4.41,-1.681
9066,2,9066,36,5.503,2.806,-2.859,9.38,-47.448,37.132,0.244,0.121,0.103,-523.0,6.144,3.747,-3.428,8.608,-46.594,35.954,0.31,0.105,0.149,-523.0,11.411,90380.453,953.546,11.407,90384.921,953.665,9066,-2.859,953.665,-14181991.0,-6.113,2.224,0.0,0.0,0.0,4.34,-1.773
9108,2,9108,42,5.989,2.824,-2.933,8.766,-47.185,36.524,0.137,0.180,0.127,-523.0,7.350,2.505,-3.220,8.140,-46.463,36.12,0.9,0.260,0.256,-523.0,11.411,90381.140,953.527,11.412,90384.921,953.678,9108,-2.933,953.678,-14303641.0,0.315,1.990,0.0,0.0,0.0,4.41,-1.818
9144,2,9144,36,6.383,3.144,-3.237,8.436,-46.904,36.226,0.71,0.210,0.169,-523.0,7.293,3.251,-3.363,7.819,-46.170,36.217,0.420,0.170,0.0,-523.0,11.409,90383.140,953.797,11.407,90383.562,954.203,9144,-3.237,954.203,-14414709.0,14.570,1.695,0.0,0.0,0.0,4.34,-2.7
9187,2,9187,43,6.964,3.154,-3.319,8.310,-46.465,36.305,0.200,0.84,0.82,-523.0,8.305,3.180,-3.263,8.418,-45.834,37.109,0.631,0.340,0.167,-523.0,11.410,90384.625,953.803,11.421,90383.562,953.582,9187,-3.319,953.582,-14555676.0,-14.444,2.764,0.0,0.0,0.0,4.34,-2.58
9223,2,9223,36,7.212,3.494,-3.158,8.441,-46.278,36.775,0.277,0.43,0.111,-523.0,6.970,4.788,-2.516,9.222,-46.331,38.585,0.358,0.412,0.795,-523.0,11.414,90384.562,953.805,11.421,90385.820,953.899,9223,-3.158,953.899,-14672274.0,8.826,1.790,0.0,0.0,0.0,4.34,-1.958
9265,2,9265,42,7.154,3.572,-3.76,8.889,-46.448,37.570,0.317,0.191,0.287,-523.0,5.850,4.134,-3.19,10.844,-47.442,39.929,0.165,0.634,0.728,-523.0,11.416,90384.250,953.607,11.421,90383.406,952.672,9265,-3.76,952.672,-14803210.0,-29.219,9.103,0.0,0.0,0.0,4.34,-1.907
9301,2,9301,36,6.619,3.379,-3.46,9.897,-46.740,38.608,0.472,0.372,0.438,-523.0,4.680,1.543,-3.69,13.183,-47.924,41.201,0.788,0.645,0.497,-523.0,11.419,90385.976,953.549,11.426,90393.523,953.389,9301,-3.46,953.389,-14913425.0,19.917,1.625,0.0,0.0,0.0,4.28,-1.889
9344,2,9344,43,5.979,3.132,-2.753,11.277,-47.258,40.99,0.534,0.535,0.649,-523.0,4.91,2.17,-1.899,14.717,-48.757,43.671,0.729,0.645,1.57,-523.0,11.424,90386.187,953.406,11.430,90384.617,953.485,9344,-2.753,953.485,-15038125.0,2.231,1.937,0.0,0.0,0.0,4.34,-1.707
9381,2,9381,37,4.964,3.68,-2.437,12.885,-48.26,41.619,0.463,0.571,0.795,-523.0,3.230,2.857,-1.683,16.457,-49.678,44.709,0.275,0.518,0.899,-523.0,11.425,90387.62,953.510,11.426,90387.937,954.106,9381,-2.437,954.106,-15134164.0,16.771,1.665,0.0,0.0,0.0,4.34,-1.511
9431,2,9431,50,4.258,2.640,-2.370,14.826,-48.731,43.247,0.408,0.558,0.752,-523.0,3.438,2.648,-2.179,18.927,-49.853,46.726,0.83,0.348,0.579,-523.0,11.426,90387.515,953.466,11.430,90388.85,953.678,9431,-2.370,953.678,-15254363.0,-8.549,2.344,0.0,0.0,0.0,4.41,-1.469
9502,2,9502,71,3.755,2.479,-2.357,16.895,-49.342,44.820,0.454,0.416,0.685,-523.0,3.337,3.330,-2.954,21.192,-50.496,47.793,0.394,0.76,0.396,-523.0,11.426,90386.945,953.604,11.416,90380.546,953.362,9502,-2.357,953.362,-15422191.0,-4.459,2.154,0.0,0.0,0.0,4.41,-1.461
9543,2,9543,41,3.541,2.930,-2.258,18.740,-49.842,46.349,0.455,0.272,0.628,-523.0,3.610,3.797,-2.574,22.405,-50.423,48.845,0.796,0.74,0.208,-523.0,11.421,90384.796,953.596,11.403,90382.804,953.347,9543,-2.258,953.347,-15516810.0,0.349,2.10,0.0,0.0,0.0,4.41,-1.400
9585,2,9585,42,3.488,3.246,-2.378,20.152,-50.46,47.673,0.430,0.142,0.467,-523.0,3.826,3.596,-2.502,21.777,-49.780,50.292,0.603,0.2,0.254,-523.0,11.416,90385.109,953.632,11.407,90386.125,953.665,9585,-2.378,953.665,-15614189.0,7.563,1.815,0.0,0.0,0.0,4.41,-1.475
9621,2,9621,36,3.658,3.294,-2.420,21.294,-50.14,48.997,0.427,0.82,0.367,-523.0,4.77,3.101,-1.892,22.171,-49.517,51.330,0.259,0.216,0.398,-523.0,11.413,90384.492,953.422,11.407,90384.921,953.58,9621,-2.420,953.58,-15700577.0,-16.852,3.22,0.0,0.0,0.0,4.41,-1.500
9790,2,9790,169,3.586,3.359,-2.338,22.592,-49.707,50.733,0.414,0.55,0.325,-523.0,3.79,2.971,-1.770,25.416,-48.319,55.407,0.19,0.214,0.369,-523.0,11.409,90384.953,953.304,11.412,90390.351,953.86,9790,-2.338,953.86,-16102724.0,0.166,1.995,0.0,0.0,0.0,4.41,-1.450
9826,2,9826,36,3.465,3.197,-1.975,23.642,-49.283,52.329,0.363,0.118,0.323,-523.0,2.734,2.519,-1.138,26.439,-48.377,55.773,0.139,0.240,0.387,-523.0,11.398,90385.976,953.334,11.361,90385.679,953.513,9826,-1.975,953.513,-16180377.0,11.844,1.737,0.0,0.0,0.0,4.34,-1.224
9997,2,9997,171,3.217,3.73,-1.744,24.805,-48.892,53.753,0.209,0.102,0.277,-523.0,2.368,3.180,-1.418,28.222,-48.465,55.963,0.25,0.155,0.23,-523.0,11.392,90386.851,953.298,11.370,90387.187,953.168,9997,-1.744,953.168,-16498411.0,-2.15,2.64,0.0,0.0,0.0,4.41,-1.81
10146,2,10146,149,3.12,2.888,-1.451,25.784,-48.707,54.878,0.108,0.116,0.189,-523.0,2.799,2.670,-1.37,26.673,-48.859,55.919,0.97,0.65,0.183,-523.0,11.380,90386.421,953.215,11.347,90384.15,953.251,10146,-1.451,953.251,-16736488.0,0.555,1.983,0.0,0.0,0.0,4.41,0.900
10188,2,10188,42,2.841,2.829,-1.251,26.869,-48.573,55.761,0.40,0.79,0.90,-523.0,3.223,2.806,0.894,27.594,-48.845,55.743,0.78,0.34,0.98,-523.0,11.368,90386.828,953.320,11.347,90386.882,953.582,10188,-1.251,953.582,-16793256.0,7.879,1.808,0.0,0.0,0.0,4.41,0.776
10224,2,10224,36,2.812,2.769,-1.105,27.182,-48.713,55.776,0.34,0.27,0.3,-523.0,2.935,2.670,-1.37,26.980,-49.20,55.480,0.9,0.48,0.97,-523.0,11.357,90386.523,953.179,11.357,90388.843,952.382,10224,-1.105,952.382,-16835686.0,-33.321,2892.0,0.0,0.0,0.0,4.41,0.685
10267,2,10267,43,2.854,2.819,-1.184,27.231,-48.804,55.779,0.10,0.15,0.104,-523.0,2.943,2.770,-1.533,26.688,-48.830,55.787,0.16,0.25,0.120,-523.0,11.360,90388.234,953.38,11.380,90394.273,952.809,10267,-1.184,952.809,-16884916.0,9.940,1.770,0.0,0.0,0.0,4.41,0.734
10303,2,10303,36,3.0,2.779,-1.139,26.916,-48.827,55.799,0.4,0.23,0.121,-523.0,3.101,2.979,-1.195,26.644,-48.582,56.65,0.46,0.43,0.105,-523.0,11.365,90387.851,953.14,11.393,90385.218,953.44,10303,-1.139,953.44,-16926752.0,6.527,1.836,0.0,0.0,0.0,4.41,0.706
10345,2,10345,42,2.997,2.799,-1.178,26.968,-48.795,55.761,0.53,0.7,0.96,-516.599,2.785,2.770,-1.231,26.936,-48.699,55.729,0.149,0.14,0.58,-491.0,11.375,90388.54,952.931,11.398,90385.70,952.838,10345,-1.178,952.838,-16975440.0,-4.924,2.173,0.0,0.0,0.0,4.47,0.730
10382,2,10382,37,2.917,2.783,-1.259,26.784,-48.821,55.650,0.40,0.12,0.110,-510.200,2.821,2.727,-1.296,26.673,-48.976,55.188,0.12,0.57,0.171,-491.0,11.387,90386.976,952.970,11.407,90381.445,953.775,10382,-1.259,953.775,-17020536.0,25.341,1.568,0.0,0.0,0.0,4.34,0.780
10426,2,10426,44,2.938,2.819,-1.273,26.609,-48.792,55.612,0.47,0.34,0.120,-510.200,3.43,2.849,-1.109,26.103,-48.874,55.290,0.45,0.62,0.147,-523.0,11.398,90385.945,953.64,11.412,90383.710,952.851,10426,-1.273,952.851,-17076248.0,-21.8,3.704,0.0,0.0,0.0,4.34,0.789
10462,2,10462,36,2.973,2.803,-1.198,26.498,-48.690,55.445,0.83,0.34,0.119,-510.200,3.115,2.691,-1.159,26.132,-48.319,54.954,0.163,0.21,0.115,-523.0,11.404,90384.250,953.157,11.412,90385.820,953.278,10462,-1.198,953.278,-17120746.0,11.873,1.737,0.0,0.0,0.0,4.34,0.743
10504,2,10504,42,2.977,2.719,-1.280,26.261,-48.687,55.191,0.66,0.24,0.122,-510.200,3.122,2.555,-1.605,25.460,-48.567,54.793,0.38,0.4,0.121,-523.0,11.409,90384.164,953.163,11.416,90384.765,953.72,10504,-1.280,953.72,-17172810.0,-4.910,2.172,0.0,0.0,0.0,4.34,0.794
10568,2,10568,64,2.994,2.765,-1.319,25.998,-48.722,55.86,0.50,0.44,0.110,-516.599,2.871,3.0,-1.425,25.621,-48.874,55.203,0.69,0.86,0.4,-523.0,11.414,90384.132,953.290,11.421,90384.921,953.472,10568,-1.319,953.472,-17256006.0,6.247,1.842,0.0,0.0,0.0,4.34,0.818
10609,2,10609,41,3.17,2.717,-1.317,25.831,-48.661,55.153,0.44,0.34,0.66,-523.0,2.935,2.490,-1.289,25.840,-48.669,55.524,0.18,0.7,0.49,-523.0,11.415,90384.578,953.188,11.412,90383.710,953.265,10609,-1.317,953.265,-17310068.0,-5.45,2.178,0.0,0.0,0.0,4.34,0.817
10645,2,10645,36,2.977,2.710,-1.316,25.764,-48.629,55.103,0.3,0.38,0.32,-516.599,2.842,2.813,-1.102,25.767,-48.713,55.42,0.158,0.83,0.21,-491.0,11.416,90385.39,953.251,11.421,90385.976,953.169,10645,-1.316,953.169,-17357486.0,-2.680,2.87,0.0,0.0,0.0,4.41,0.816
10688,2,10688,43,2.904,2.785,-1.280,25.761,-48.737,55.130,0.17,0.40,0.11,-516.599,2.749,3.65,0.980,26.118,-48.859,55.86,0.56,0.32,0.12,-523.0,11.418,90385.39,953.188,11.421,90385.820,952.962,10688,-1.280,952.962,-17413322.0,-4.810,2.168,0.0,0.0,0.0,4.34,0.794
10724,2,10724,36,2.756,2.762,-1.203,25.942,-48.950,55.261,0.0,0.48,0.15,-510.200,2.383,2.440,-1.217,26.366,-49.634,55.451,0.47,0.33,0.15,-491.0,11.419,90386.164,953.229,11.421,90390.351,953.278,10724,-1.203,953.278,-17458026.0,8.794,1.791,0.0,0.0,0.0,4.41,0.745
10766,2,10766,42,2.681,2.693,-1.98,26.39,-49.64,55.399,0.29,0.29,0.11,-510.200,2.498,2.656,0.901,26.103,-49.444,55.890,0.73,0.8,0.18,-523.0,11.419,90387.453,953.232,11.421,90391.406,953.485,10766,-1.98,953.485,-17506352.0,4.924,1.871,0.0,0.0,0.0,4.34,0.681
10802,2,10802,36,2.577,2.765,-1.138,26.214,-49.90,55.258,0.35,0.25,0.9,-510.200,2.411,2.849,-1.490,26.717,-48.801,54.823,0.50,0.14,0.54,-523.0,11.422,90387.421,953.295,11.426,90383.562,953.582,10802,-1.138,953.582,-17546612.0,2.680,1.925,0.0,0.0,0.0,4.34,0.705
10845,2,10845,43,2.502,2.734,-1.185,26.278,-49.166,55.290,0.16,0.30,0.27,-516.599,2.469,2.663,-1.339,26.88,-49.93,55.203,0.61,0.107,0.68,-523.0,11.424,90387.843,953.400,11.430,90388.85,953.693,10845,-1.185,953.693,-17596582.0,2.579,1.928,0.0,0.0,0.0,4.41,0.735
10881,2,10881,36,2.482,2.710,-1.161,26.328,-49.166,55.285,0.32,0.27,0.27,-510.200,2.648,2.943,0.858,26.366,-48.859,55.56,0.25,0.16,0.13,-491.0,11.423,90387.601,953.565,11.416,90384.617,953.789,10881,-1.161,953.789,-17638832.0,2.665,1.925,0.0,0.0,0.0,4.34,0.720
10923,2,10923,42,2.509,2.844,-1.178,26.129,-48.883,55.197,0.55,0.31,0.45,-516.599,2.519,3.108,-1.303,25.372,-48.216,55.13,0.63,0.58,0.73,-523.0,11.424,90387.820,953.667,11.426,90391.406,953.789,10923,-1.178,953.789,-17687972.0,0.0,2.0,0.0,0.0,0.0,4.34,0.730
10959,2,10959,36,2.556,2.898,-1.187,26.153,-48.751,55.13,0.34,0.54,0.49,-516.599,2.734,2.928,0.944,26.220,-48.786,54.969,0.29,0.105,0.37,-523.0,11.425,90388.265,953.667,11.426,90393.671,953.485,10959,-1.187,953.485,-17730558.0,-8.426,2.338,0.0,0.0,0.0,4.34,0.736
11002,2,11002,43,2.633,2.900,-1.115,26.15,-48.634,54.992,0.35,0.58,0.51,-510.200,2.792,2.857,-1.131,26.30,-48.216,54.720,0.54,0.1,0.62,-491.0,11.426,90388.265,953.648,11.430,90383.562,953.485,11002,-1.115,953.485,-17780066.0,0.0,2.0,0.0,0.0,0.0,4.34,0.691
11038,2,11038,36,2.663,2.984,-1.69,25.887,-48.459,54.969,0.22,0.66,0.54,-510.200,2.620,3.86,-1.109,25.445,-48.216,55.86,0.2,0.152,0.83,-523.0,11.426,90387.992,953.607,11.430,90386.726,953.485,11038,-1.69,953.485,-17819394.0,0.0,2.0,0.0,0.0,0.0,4.41,0.663
11108,2,11108,70,2.716,2.935,-1.122,25.624,-48.287,55.30,0.18,0.70,0.79,-510.200,2.914,2.699,-1.124,25.51,-47.997,55.363,0.5,0.35,0.138,-491.0,11.427,90388.968,953.562,11.426,90389.445,953.568,11108,-1.122,953.568,-17896118.0,1.190,1.965,0.0,0.0,0.0,4.28,0.696
11144,2,11144,36,2.722,2.841,-1.167,25.545,-48.249,55.147,0.8,0.59,0.79,-503.799,2.548,2.634,-1.526,24.978,-48.26,55.597,0.13,0.1,0.74,-491.0,11.425,90387.875,953.521,11.412,90385.976,953.582,11144,-1.167,953.582,-17937334.0,0.366,1.989,0.0,0.0,0.0,4.34,0.723
11186,2,11186,42,2.663,2.765,-1.307,25.147,-48.53,55.270,0.36,0.72,0.87,-497.399,2.440,2.548,-1.648,24.232,-47.807,55.583,0.111,0.173,0.81,-491.0,11.423,90386.546,953.496,11.416,90387.31,953.362,11186,-1.307,953.362,-17989308.0,-5.238,2.186,0.0,0.0,0.0,4.34,0.810
11223,2,11223,37,2.630,2.714,-1.398,24.925,-48.26,55.442,0.36,0.66,0.41,-503.799,2.627,2.605,-1.583,24.919,-48.85,55.583,0.56,0.31,0.170,-523.0,11.421,90386.992,953.494,11.421,90385.820,953.472,11223,-1.398,953.472,-18039370.0,2.980,1.917,0.0,0.0,0.0,4.34,0.867
11265,2,11265,42,2.502,2.734,-1.513,24.963,-47.942,55.688,0.113,0.61,0.7,-503.799,1.981,3.187,-1.683,25.635,-47.793,56.313,0.379,0.127,0.86,-523.0,11.418,90387.718,953.532,11.416,90390.351,953.678,11265,-1.513,953.678,-18100510.0,4.911,1.871,0.0,0.0,0.0,4.34,0.938
11301,2,11301,36,2.443,2.614,-1.543,25.226,-47.866,55.895,0.161,0.52,0.131,-503.799,2.620,2.96,-1.274,26.366,-47.617,56.401,0.243,0.8,0.555,-491.0,11.416,90387.210,953.494,11.416,90386.882,953.375,11301,-1.543,953.375,-18155526.0,-8.410,2.337,0.0,0.0,0.0,4.41,0.956
11344,2,11344,43,2.384,2.645,-1.580,25.703,-47.848,56.202,0.276,0.37,0.243,-503.799,2.254,2.792,-1.712,27.360,-47.939,57.132,0.592,0.70,0.488,-491.0,11.417,90386.968,953.433,11.416,90384.765,953.278,11344,-1.580,953.278,-18222690.0,-2.258,2.72,0.0,0.0,0.0,4.21,0.980
11380,2,11380,36,2.446,2.388,-1.939,26.463,-47.679,56.676,0.472,0.2,0.360,-510.200,2.749,1.263,-3.442,28.32,-46.959,57.950,1.87,0.30,0.500,-523.0,11.417,90386.515,953.496,11.416,90384.765,953.678,11380,-1.939,953.678,-18286052.0,11.108,1.750,0.0,0.0,0.0,4.41,-1.202
11424,2,11424,44,2.610,2.390,-1.754,27.185,-47.337,57.500,0.667,0.56,0.527,-510.200,3.445,2.612,0.657,28.529,-46.375,59.704,1.33,0.301,1.5,-523.0,11.416,90387.203,953.518,11.416,90389.296,953.582,11424,-1.754,953.582,-18367316.0,-2.194,2.70,0.0,0.0,0.0,4.34,-1.87
11460,2,11460,36,2.591,2.32,-1.348,28.6,-47.24,58.251,0.725,0.43,0.657,-503.799,1.887,1.399,0.347,29.742,-46.229,60.70,0.670,0.193,0.739,-491.0,11.415,90386.335,953.540,11.412,90385.976,953.789,11460,-1.348,953.789,-18423158.0,5.745,1.852,0.0,0.0,0.0,4.34,0.835
11502,2,11502,42,2.905,2.127,-1.169,28.912,-46.734,59.277,0.740,0.34,0.788,-510.200,4.192,2.569,0.384,30.897,-46.170,61.531,0.317,0.35,1.206,-523.0,11.415,90384.789,953.579,11.412,90379.187,953.568,11502,-1.169,953.568,-18476036.0,-5.238,2.186,0.0,0.0,0.0,4.54,0.725
11538,2,11538,36,3.200,1.775,-1.99,30.70,-46.387,60.382,0.823,0.131,1.74,-516.599,3.725,1.33,-1.360,33.148,-46.199,62.657,1.7,0.762,1.920,-523.0,11.413,90386.398,953.615,11.407,90392.765,953.458,11538,-1.99,953.458,-18516890.0,-3.80,2.101,0.0,0.0,0.0,4.47,0.681
11592,2,11592,54,3.371,1.988,0.607,31.894,-45.954,61.707,0.736,0.9,1.247,-510.200,3.603,2.325,0.980,37.152,-44.796,64.571,0.651,0.643,1.367,-491.0,11.412,90386.210,953.571,11.412,90383.867,953.458,11592,0.607,953.458,-18562974.0,0.0,2.0,0.0,0.0,0.0,4.41,0.376
11628,2,11628,36,3.195,1.981,0.574,33.659,-45.624,62.858,0.527,0.156,1.452,-503.799,2.569,2.577,0.492,37.357,-44.723,65.463,0.10,1.128,2.27,-491.0,11.408,90385.796,953.546,11.398,90387.179,953.458,11628,0.574,953.458,-18584238.0,0.0,2.0,0.0,0.0,0.0,4.41,0.356
11670,2,11670,42,3.187,1.819,0.625,35.644,-45.469,63.726,0.473,0.312,1.556,-503.799,1.844,0.588,0.89,39.666,-45.454,64.410,0.401,0.589,1.261,-491.0,11.406,90384.265,953.502,11.403,90378.281,953.568,11670,0.625,953.568,-18609440.0,2.640,1.926,0.0,0.0,0.0,4.41,0.388
11713,2,11713,43,2.587,1.658,0.544,37.664,-45.182,64.460,0.455,0.301,1.606,-503.799,1.191,1.765,0.24,40.996,-44.738,65.200,0.227,0.90,1.455,-523.0,11.405,90386.101,953.582,11.407,90388.390,953.968,11713,0.544,953.968,-18634592.0,9.285,1.782,0.0,0.0,0.0,4.47,0.337
11749,2,11749,36,2.215,1.554,0.409,39.900,-44.907,64.960,0.248,0.275,1.566,-497.399,1.866,0.516,0.686,44.329,-44.826,65.156,0.28,0.894,1.723,-491.0,11.404,90382.515,953.582,11.403,90374.812,953.458,11749,0.409,953.458,-18651748.0,-14.172,2.739,0.0,0.0,0.0,4.34,0.253
11791,2,11791,42,2.317,1.483,0.60,42.160,-44.940,65.77,0.164,0.27,1.559,-503.799,4.113,1.966,0.763,48.450,-44.957,65.156,0.231,0.595,1.329,-523.0,11.404,90382.265,953.604,11.412,90382.656,953.568,11791,0.60,953.568,-18661602.0,2.640,1.926,0.0,0.0,0.0,4.41,0.37
11827,2,11827,36,2.109,1.134,0.143,44.773,-44.767,65.130,0.191,0.196,1.514,-503.799,1.529,0.832,0.908,50.423,-43.861,65.726,0.124,0.9,1.804,-491.0,11.406,90382.929,953.461,11.407,90390.500,952.741,11827,0.143,952.741,-18665268.0,-22.981,4.220,0.0,0.0,0.0,4.47,0.88
11870,2,11870,43,2.569,1.850,0.114,47.491,-44.378,65.358,0.243,0.458,1.448,-510.200,4.149,4.170,0.232,53.259,-43.510,65.551,0.661,0.720,0.932,-523.0,11.409,90384.250,953.438,11.416,90384.921,953.458,11870,0.114,953.458,-18670820.0,16.661,1.666,0.0,0.0,0.0,4.41,0.71
11906,2,11906,36,2.462,1.500,0.406,50.523,-43.835,65.463,0.303,0.567,1.329,-503.799,0.653,0.14,-1.432,56.153,-42.19,65.726,0.531,0.635,0.857,-491.0,11.409,90382.171,953.317,11.407,90377.976,953.362,11906,0.406,953.362,-18680198.0,-2.665,2.86,0.0,0.0,0.0,4.47,0.251
11948,2,11948,42,1.972,1.655,0.511,53.209,-42.908,65.662,0.427,0.497,1.225,-510.200,0.581,1.292,-1.210,57.760,-40.192,66.150,0.589,0.544,1.201,-523.0,11.411,90384.171,953.257,11.412,90384.765,953.154,11948,0.511,953.154,-18699460.0,-4.938,2.173,0.0,0.0,0.0,4.47,0.316
11984,2,11984,36,0.769,1.572,0.625,55.667,-41.657,65.954,0.574,0.572,1.56,-503.799,-1.902,1.550,0.189,60.742,-38.702,66.617,0.963,0.971,0.487,-491.0,11.411,90385.39,953.301,11.412,90387.31,953.789,11984,0.625,953.789,-18719924.0,17.618,1.654,0.0,0.0,0.0,4.47,0.388
12027,2,12027,43,0.627,2.57,0.574,58.94,-40.380,66.182,0.534,0.626,0.909,-510.200,0.818,3.259,0.650,62.554,-37.474,66.866,0.74,0.259,1.66,-523.0,11.413,90384.796,953.427,11.416,90389.296,953.375,12027,0.574,953.375,-18745726.0,-9.606,2.404,0.0,0.0,0.0,4.47,0.356
12063,2,12063,36,0.773,1.300,-1.43,60.254,-38.971,66.351,0.467,0.565,0.837,-503.799,-2.857,0.387,-2.114,64.60,-36.465,66.398,0.328,0.418,0.576,-491.0,11.414,90385.671,953.328,11.421,90389.296,952.962,12063,-1.43,952.962,-18774848.0,-11.491,2.526,0.0,0.0,0.0,4.41,0.647
12132,2,12132,69,0.938,1.458,0.897,61.905,-37.541,66.661,0.417,0.495,0.678,-510.200,0.172,0.803,0.700,64.410,-34.872,67.275,0.279,0.282,0.59,-523.0,11.416,90386.851,953.306,11.421,90383.867,953.251,12132,0.897,953.251,-18841808.0,4.196,1.888,0.0,0.0,0.0,4.47,0.556
12168,2,12168,36,0.486,1.342,0.173,63.262,-36.372,66.860,0.403,0.402,0.490,-503.799,1.679,0.710,2.407,64.542,-34.346,67.144,0.518,0.83,0.259,-491.0,11.415,90387.796,953.326,11.407,90389.445,953.251,12168,0.173,953.251,-18861084.0,0.0,2.0,0.0,0.0,0.0,4.41,0.107
12210,2,12210,42,0.549,0.793,0.658,64.264,-35.399,66.881,0.337,0.347,0.254,-510.200,-2.218,-1.191,-2.236,65.755,-33.835,66.720,0.634,0.692,0.688,-523.0,11.415,90388.726,953.116,11.407,90391.710,952.741,12210,0.658,952.741,-18878566.0,-12.145,2.573,0.0,0.0,0.0,4.47,0.408
12246,2,12246,36,0.825,0.64,0.687,64.869,-34.446,67.6,0.398,0.331,0.34,-510.200,0.559,-1.33,0.793,65.580,-32.709,67.494,0.231,0.179,0.35,-523.0,11.414,90388.273,953.94,11.412,90387.31,953.265,12246,0.687,953.265,-18902802.0,14.553,1.696,0.0,0.0,0.0,4.41,0.426
12289,2,12289,43,0.643,0.109,0.371,65.147,-33.764,67.38,0.336,0.259,0.85,-516.599,-1.945,0.165,0.535,65.448,-33.60,66.559,0.18,0.58,0.23,-523.0,11.412,90386.945,953.215,11.412,90382.656,953.568,12289,0.371,953.568,-18925578.0,7.55,1.825,0.0,0.0,0.0,4.41,0.230
12325,2,12325,36,-1.49,0.374,0.330,65.323,-33.279,66.834,0.287,0.122,0.153,-510.200,-2.203,0.524,0.492,65.287,-32.446,66.252,0.36,0.401,0.279,-491.0,11.411,90387.789,953.240,11.416,90388.85,953.375,12325,0.330,953.375,-18938212.0,-5.362,2.191,0.0,0.0,0.0,4.54,0.204
12368,2,12368,43,-1.372,0.683,0.780,65.375,-33.10,66.729,0.183,0.128,0.265,-516.599,0.64,0.832,0.153,64.805,-33.2,66.617,0.1,0.116,0.298,-523.0,11.415,90387.515,953.204,11.426,90388.85,953.72,12368,0.780,953.72,-18962100.0,-7.54,2.268,0.0,0.0,0.0,4.41,0.484
12404,2,12404,36,-1.118,0.327,0.371,65.162,-32.809,66.682,0.77,0.9,0.218,-510.200,0.947,0.588,0.190,64.688,-32.826,66.486,0.101,0.94,0.453,-491.0,11.416,90387.0,953.232,11.416,90389.140,952.879,12404,0.371,952.879,-18982848.0,-5.362,2.191,0.0,0.0,0.0,4.41,0.230
12448,2,12448,44,-1.361,1.834,0.618,64.805,-32.858,66.635,0.34,0.10,0.217,-510.200,-1.773,9.777,-2.28,63.797,-32.958,67.261,0.15,0.81,0.32,-523.0,11.419,90388.117,953.235,11.426,90392.617,953.278,12448,0.618,953.278,-19004638.0,9.74,1.786,0.0,0.0,0.0,4.41,0.383
12485,2,12485,37,-1.339,1.908,0.673,64.674,-32.926,66.612,0.34,0.2,0.220,-503.799,-1.837,0.531,0.808,64.790,-33.396,66.442,0.21,0.122,0.37,-491.0,11.423,90389.203,953.279,11.430,90388.85,953.789,12485,0.673,953.789,-19028538.0,13.788,1.707,0.0,0.0,0.0,4.41,0.417
12526,2,12526,41,-1.233,1.945,0.604,64.486,-33.95,66.667,0.29,0.7,0.125,-503.799,-1.672,0.337,0.147,64.352,-33.294,66.530,0.10,0.451,0.194,-491.0,11.425,90389.632,953.281,11.426,90390.203,953.389,12526,0.604,953.389,-19054728.0,-9.738,2.412,0.0,0.0,0.0,4.34,0.374
12562,2,12562,36,-1.550,2.44,0.696,64.200,-33.174,66.699,0.26,0.95,0.62,-503.799,-1.521,0.337,0.305,63.373,-33.396,66.778,0.14,0.325,0.18,-523.0,11.426,90389.390,953.364,11.430,90386.882,953.485,12562,0.696,953.485,-19078138.0,2.665,1.925,0.0,0.0,0.0,4.41,0.431
12605,2,12605,43,-1.481,2.42,0.760,63.899,-33.218,66.799,0.13,0.207,0.22,-503.799,0.602,0.581,0.513,63.183,-33.45,66.983,0.35,0.462,0.256,-491.0,11.429,90388.31,953.383,11.435,90382.351,952.975,12605,0.760,952.975,-19109464.0,-11.864,2.552,0.0,0.0,0.0,4.34,0.471
12674,2,12674,69,-1.529,0.14,0.328,63.443,-33.221,67.53,0.15,0.309,0.23,-497.399,-2.9,0.509,0.132,61.517,-32.972,68.532,0.24,0.431,0.199,-491.0,11.430,90387.609,953.317,11.430,90390.500,952.948,12674,0.328,952.948,-19147052.0,0.391,2.11,0.0,0.0,0.0,4.41,0.203
12717,2,12717,43,-1.175,0.212,0.200,62.776,-33.78,67.594,0.16,0.382,0.46,-497.399,0.71,0.459,0.169,61.458,-32.680,69.146,0.25,0.241,0.77,-491.0,11.426,90387.640,953.273,11.412,90388.242,953.568,12717,0.200,953.568,-19158438.0,14.431,1.697,0.0,0.0,0.0,4.34,0.124
12754,2,12754,37,0.982,0.246,0.38,62.323,-32.943,68.67,0.19,0.257,0.27,-497.399,0.703,0.509,0.663,62.87,-32.622,68.897,0.25,0.172,0.176,-491.0,11.425,90387.0,953.229,11.416,90387.31,953.169,12754,0.38,953.169,-19162870.0,-10.808,2.479,0.0,0.0,0.0,4.34,0.23
12796,2,12796,42,0.839,0.143,0.24,62.63,-32.876,68.380,0.28,0.146,0.33,-491.0,0.811,0.179,0.10,62.72,-33.60,68.342,0.31,0.232,0.12,-491.0,11.422,90387.242,953.146,11.416,90388.85,953.72,12796,0.24,953.72,-19163168.0,-2.297,2.74,0.0,0.0,0.0,4.34,0.15
12832,2,12832,36,-1.240,1.73,0.205,61.882,-32.896,68.629,0.2,0.130,0.27,-491.0,-2.605,6.668,-1.662,62.277,-33.148,68.225,0.91,0.383,0.49,-491.0,11.420,90388.812,953.207,11.426,90390.203,953.278,12832,0.205,953.278,-19166420.0,5.728,1.853,0.0,0.0,0.0,4.34,0.127
12875,2,12875,43,0.940,1.305,0.265,61.759,-32.914,68.661,0.9,0.173,0.18,-497.399,0.509,0.646,0.169,60.903,-33.60,68.693,0.56,0.647,0.28,-523.0,11.420,90388.93,953.337,11.430,90386.882,953.596,12875,0.265,953.596,-19176540.0,7.388,1.818,0.0,0.0,0.0,4.34,0.164
12911,2,12911,36,0.948,1.213,0.343,61.540,-32.926,68.605,0.0,0.286,0.30,-503.799,0.114,0.918,0.556,60.362,-32.738,68.868,0.18,0.805,0.322,-523.0,11.424,90387.578,953.221,11.430,90385.671,952.990,12911,0.343,952.990,-19187494.0,-16.837,3.20,0.0,0.0,0.0,4.34,0.212
12953,2,12953,42,0.466,1.302,0.421,60.964,-32.978,68.702,0.0,0.407,0.69,-510.200,1.708,0.64,0.268,59.207,-32.885,69.380,0.25,0.433,0.18,-523.0,11.426,90387.54,953.204,11.430,90384.460,953.86,12953,0.421,953.86,-19203560.0,2.297,1.935,0.0,0.0,0.0,4.34,0.261
12989,2,12989,36,0.590,1.161,0.768,60.400,-32.975,68.827,0.39,0.514,0.99,-510.200,-1.428,0.524,-1.719,59.251,-33.45,68.971,0.224,0.300,0.133,-491.0,11.429,90387.664,953.271,11.430,90391.101,953.403,12989,0.768,953.403,-19224980.0,8.794,1.791,0.0,0.0,0.0,4.41,0.476
13033,2,13033,44,1.82,0.63,0.206,59.514,-32.864,69.222,0.92,0.510,0.156,-516.599,5.757,1.177,1.144,57.848,-32.592,70.198,0.174,0.368,0.336,-523.0,11.433,90387.640,953.276,11.444,90390.46,953.306,13033,0.206,953.306,-19246422.0,-2.193,2.70,0.0,0.0,0.0,4.34,0.128
13069,2,13069,36,1.488,0.124,0.139,59.70,-32.709,69.500,0.106,0.308,0.188,-510.200,1.521,0.294,0.168,58.681,-32.285,70.81,0.126,0.364,0.129,-491.0,11.434,90385.765,953.177,11.435,90377.523,953.100,13069,0.139,953.100,-19252646.0,-5.745,2.208,0.0,0.0,0.0,4.34,0.86
13111,2,13111,42,1.452,0.137,0.80,58.821,-32.554,69.748,0.132,0.253,0.141,-510.200,0.294,0.394,0.262,59.120,-31.964,70.111,0.109,0.529,0.86,-523.0,11.438,90385.937,953.240,11.449,90386.578,953.306,13111,0.80,953.306,-19257254.0,4.924,1.871,0.0,0.0,0.0,4.34,0.49
13175,2,13175,64,1.411,0.21,0.91,58.792,-32.306,69.886,0.155,0.134,0.146,-503.799,1.500,0.646,0.211,59.61,-31.642,70.67,0.142,0.160,0.44,-491.0,11.440,90386.632,953.196,11.444,90387.937,952.865,13175,0.91,952.865,-19262762.0,-6.894,2.260,0.0,0.0,0.0,4.34,0.56
13216,2,13216,41,1.737,0.4,0.222,58.889,-32.87,70.119,0.134,0.77,0.132,-510.200,0.200,0.610,0.147,59.733,-31.949,70.140,0.120,0.16,0.63,-523.0,11.441,90385.312,953.257,11.435,90384.460,953.706,13216,0.222,953.706,-19260080.0,20.501,1.619,0.0,0.0,0.0,4.34,0.138
13252,2,13252,36,0.539,0.410,0.134,59.222,-31.826,70.187,0.114,0.99,0.0,-503.799,0.229,0.897,0.643,59.514,-31.292,70.534,0.71,0.478,0.324,-491.0,11.441,90384.617,953.339,11.444,90386.578,953.720,13252,0.134,953.720,-19258500.0,0.398,1.988,0.0,0.0,0.0,4.34,0.83
13295,2,13295,43,0.640,0.489,0.206,59.199,-31.660,70.301,0.95,0.134,0.107,-503.799,2.24,0.689,0.190,58.564,-31.452,70.651,0.31,0.189,0.405,-491.0,11.442,90386.187,953.361,11.439,90385.367,953.210,13295,0.206,953.210,-19265842.0,-11.864,2.552,0.0,0.0,0.0,4.34,0.128
13331,2,13331,36,0.264,0.862,0.272,59.283,-31.642,70.268,0.76,0.30,0.148,-497.399,-2.175,-1.471,0.592,59.543,-31.876,69.950,0.15,0.6,0.120,-491.0,11.443,90386.820,953.306,11.453,90389.742,953.31,13331,0.272,953.31,-19274470.0,-4.979,2.175,0.0,0.0,0.0,4.34,0.169
13373,2,13373,42,0.386,0.719,0.364,59.389,-31.748,70.201,0.44,0.36,0.230,-497.399,2.110,0.71,0.248,59.587,-32.168,69.731,0.17,0.131,0.363,-491.0,11.447,90386.695,953.381,11.462,90387.328,953.237,13373,0.364,953.237,-19287852.0,4.923,1.871,0.0,0.0,0.0,4.34,0.226
13415,2,13415,42,0.674,0.608,0.297,59.427,-31.800,70.40,0.24,0.66,0.241,-491.0,1.643,0.57,0.189,59.923,-32.212,69.336,0.20,0.496,0.5,-491.0,11.452,90387.62,953.227,11.462,90386.273,952.935,13415,0.297,952.935,-19301746.0,-7.209,2.275,0.0,0.0,0.0,4.41,0.184
13452,2,13452,37,0.193,0.515,0.927,59.903,-32.5,69.611,0.18,0.499,0.158,-491.0,-4.572,0.430,-3.794,61.897,-32.315,68.386,0.43,-1.686,0.91,-491.0,11.456,90388.328,953.28,11.462,90392.914,952.728,13452,0.927,952.728,-19324398.0,-5.588,2.201,0.0,0.0,0.0,4.34,0.575
13495,2,13495,43,0.331,0.462,0.838,60.356,-32.113,69.251,0.9,0.382,0.93,-497.399,1.335,0.423,0.254,60.830,-31.993,68.854,0.15,0.394,0.80,-523.0,11.462,90387.578,953.34,11.472,90381.593,953.237,13495,0.838,953.237,-19362360.0,11.850,1.737,0.0,0.0,0.0,4.34,0.519
13531,2,13531,36,0.595,-2.567,-1.167,60.400,-31.946,69.184,0.35,0.385,0.123,-497.399,2.462,-11.995,-2.236,59.763,-31.43,69.614,0.144,0.5,0.269,-491.0,11.465,90386.640,953.116,11.467,90385.62,953.444,13531,-1.167,953.444,-19398458.0,5.745,1.852,0.0,0.0,0.0,4.47,0.723
13574,2,13574,43,1.458,-2.944,-2.335,60.242,-31.964,69.207,0.90,0.472,0.28,-497.399,6.424,-1.816,-6.91,58.798,-32.256,69.847,0.258,0.566,0.109,-491.0,11.469,90386.843,953.97,11.481,90388.382,953.142,13574,-2.335,953.142,-19473770.0,-7.41,2.267,0.0,0.0,0.0,4.47,-1.448
13611,2,13611,37,0.960,-2.951,-2.490,60.230,-31.762,69.269,0.98,0.333,0.79,-497.399,0.847,0.93,0.585,59.865,-31.204,69.643,0.61,0.199,0.547,-491.0,11.470,90387.507,953.180,11.467,90389.593,953.348,13611,-2.490,953.348,-19563062.0,5.590,1.856,0.0,0.0,0.0,4.47,-1.544
13680,2,13680,69,1.986,-3.68,-1.794,59.944,-31.461,69.538,0.114,0.3,0.136,-497.399,0.559,-1.12,0.312,60.464,-30.809,69.731,0.125,0.2,0.376,-491.0,11.472,90387.117,953.279,11.472,90390.953,953.224,13680,-1.794,953.224,-19710906.0,-1.806,2.57,0.0,0.0,0.0,4.41,-1.112
13716,2,13716,36,1.282,-3.701,-2.308,59.956,-31.34,69.760,0.136,0.127,0.116,-491.0,-2.189,-3.589,-2.315,60.888,-29.859,69.964,0.91,0.262,0.181,-491.0,11.468,90387.632,953.298,11.453,90384.164,953.334,13716,-2.308,953.334,-19784760.0,3.63,1.915,0.0,0.0,0.0,4.47,-1.431
13758,2,13758,42,1.207,0.410,-2.579,60.441,-30.932,69.731,0.197,0.416,0.142,-491.0,2.88,4.457,-3.593,62.189,-30.532,69.467,0.450,-1.452,0.139,-491.0,11.468,90388.117,953.276,11.467,90387.484,953.334,13758,-2.579,953.334,-19887416.0,0.0,2.0,0.0,0.0,0.0,4.41,-1.599
13794,2,13794,36,0.623,0.55,-1.665,61.651,-30.438,69.470,0.232,0.396,0.18,-491.0,-2.727,0.43,-1.518,64.849,-29.786,68.547,0.431,0.466,0.508,-491.0,11.462,90388.843,953.191,11.453,90392.7,952.714,13794,-1.665,952.714,-19963828.0,-17.220,3.68,0.0,0.0,0.0,4.41,-1.32
13837,2,13837,43,0.638,0.251,-1.526,62.756,-30.20,69.114,0.274,0.686,0.167,-491.0,0.926,-1.69,0.110,65.390,-29.114,67.860,0.273,-1.248,0.385,-491.0,11.461,90389.109,953.185,11.458,90390.953,953.321,13837,-1.526,953.321,-20032442.0,14.109,1.702,0.0,0.0,0.0,4.41,0.946
13873,2,13873,36,-1.155,0.267,-2.309,64.381,-29.745,68.506,0.193,-1.40,0.267,-491.0,-2.24,1.579,-4.232,68.591,-29.435,66.691,0.281,-1.773,0.120,-491.0,11.457,90388.632,953.205,11.453,90388.539,953.321,13873,-2.309,953.321,-20101490.0,0.0,2.0,0.0,0.0,0.0,4.41,-1.432
13915,2,13915,42,0.608,0.406,-2.37,66.50,-29.766,67.632,0.164,-1.15,0.239,-491.0,0.545,-2.892,0.951,69.234,-29.961,65.594,0.48,0.135,0.41,-491.0,11.460,90388.835,953.144,11.467,90385.218,953.31,13915,-2.37,953.31,-20192778.0,-6.907,2.261,0.0,0.0,0.0,4.47,-1.263
13951,2,13951,36,-1.564,0.539,-1.418,67.442,-29.532,66.851,0.84,0.741,0.229,-491.0,-2.691,0.272,0.499,69.146,-29.362,65.565,0.46,0.83,0.92,-491.0,11.459,90389.78,953.122,11.462,90388.687,953.224,13951,-1.418,953.224,-20254978.0,5.362,1.861,0.0,0.0,0.0,4.47,0.879
13994,2,13994,43,-1.389,0.707,-1.181,68.211,-29.549,66.220,0.11,0.639,0.170,-491.0,-1.852,0.882,0.334,68.693,-29.874,65.390,0.69,0.41,0.214,-491.0,11.461,90387.960,953.122,11.462,90386.421,952.714,13994,-1.181,952.714,-20310874.0,-11.852,2.551,0.0,0.0,0.0,4.34,0.732
14030,2,14030,36,-1.320,3.919,0.720,68.646,-29.728,65.840,0.30,0.363,0.155,-491.0,0.581,22.66,2.414,67.567,-30.5,65.960,0.59,0.134,0.310,-491.0,11.461,90386.609,953.23,11.458,90384.164,952.824,14030,0.720,952.824,-20345112.0,3.63,1.915,0.0,0.0,0.0,4.41,0.446
14072,2,14072,42,1.218,2.913,0.676,67.921,-30.292,65.472,0.110,0.41,0.173,-491.0,10.674,-3.452,2.752,64.966,-32.256,64.849,0.678,0.247,0.208,-491.0,11.461,90387.296,953.45,11.458,90392.7,953.431,14072,0.676,953.431,-20346042.0,14.431,1.697,0.0,0.0,0.0,4.41,0.419
14108,2,14108,36,0.838,2.974,0.505,66.863,-30.844,65.416,0.106,0.166,0.128,-497.399,-1.356,-2.584,-1.806,63.943,-32.724,65.317,0.29,0.493,0.182,-523.0,11.459,90388.203,953.147,11.453,90389.742,953.541,14108,0.505,953.541,-20324770.0,3.65,1.915,0.0,0.0,0.0,4.41,0.313
14151,2,14151,43,1.556,3.92,0.442,65.556,-31.593,65.752,0.151,0.344,0.107,-497.399,0.897,0.315,0.815,62.613,-33.104,67.246,0.176,0.805,0.14,-491.0,11.457,90387.750,953.147,11.453,90386.421,953.224,14151,0.442,953.224,-20304394.0,-7.375,2.284,0.0,0.0,0.0,4.34,0.274
14198,2,14198,47,1.899,3.256,0.344,64.203,-32.209,66.512,0.164,0.385,0.51,-497.399,0.136,0.64,0.822,61.926,-32.958,69.190,0.2,0.244,0.62,-491.0,11.456,90388.445,953.287,11.458,90389.898,953.417,14198,0.344,953.417,-20285900.0,4.106,1.890,0.0,0.0,0.0,4.47,0.213
14240,2,14240,42,1.941,0.921,0.409,62.937,-32.771,67.120,0.151,0.338,0.11,-503.799,0.373,1.177,2.737,61.239,-32.812,69.0,0.124,0.95,0.9,-523.0,11.455,90388.718,953.364,11.453,90385.523,953.210,14240,0.409,953.210,-20270068.0,-4.923,2.173,0.0,0.0,0.0,4.47,0.253
14276,2,14276,36,0.730,0.234,0.374,62.429,-32.926,67.892,0.2,0.297,0.69,-503.799,-2.684,0.14,-1.167,62.423,-33.31,68.707,0.93,0.38,0.76,-491.0,11.453,90388.85,953.403,11.449,90388.843,953.624,14276,0.374,953.624,-20269444.0,11.505,1.743,0.0,0.0,0.0,4.47,0.232
14320,2,14320,44,0.874,0.680,0.538,62.233,-32.741,68.593,0.45,0.305,0.51,-497.399,-2.74,-4.816,2.759,62.964,-31.803,68.824,0.269,0.537,0.93,-491.0,11.453,90386.546,953.318,11.453,90382.46,953.113,14320,0.538,953.113,-20265840.0,-11.607,2.534,0.0,0.0,0.0,4.41,0.333
14356,2,14356,36,0.509,0.946,0.884,62.300,-32.499,68.769,0.12,0.77,0.38,-497.399,7.817,8.449,0.914,62.949,-31.891,68.123,0.109,0.339,0.436,-491.0,11.452,90385.890,953.439,11.449,90383.101,953.830,14356,0.884,953.830,-20240226.0,19.917,1.625,0.0,0.0,0.0,4.34,0.548
14398,2,14398,42,0.4,0.852,0.778,62.648,-32.320,68.538,0.56,0.105,0.62,-497.399,-2.706,0.531,-1.353,63.665,-32.66,68.35,0.222,0.667,0.56,-491.0,11.450,90386.125,953.334,11.449,90391.101,952.893,14398,0.778,952.893,-20205308.0,-22.311,4.24,0.0,0.0,0.0,4.41,0.482
14434,2,14434,36,0.81,0.559,0.155,63.276,-32.133,68.319,0.17,0.3,0.29,-491.0,0.760,0.287,0.377,64.381,-31.876,67.904,0.67,0.447,0.175,-491.0,11.449,90385.179,953.376,11.444,90380.843,953.417,14434,0.155,953.417,-20188506.0,14.538,1.696,0.0,0.0,0.0,4.41,0.96
14478,2,14478,44,0.376,0.568,0.344,63.487,-31.894,68.234,0.1,0.8,0.69,-491.0,0.394,0.28,0.219,63.475,-31.832,68.284,0.0,0.62,0.125,-491.0,11.448,90384.62,953.271,11.444,90383.257,953.100,14478,0.344,953.100,-20177510.0,-7.207,2.275,0.0,0.0,0.0,4.34,0.213
14514,2,14514,36,0.781,1.524,0.216,63.551,-31.973,68.126,0.57,0.96,0.108,-491.0,0.50,0.35,0.47,63.285,-32.198,68.284,0.22,0.14,0.102,-491.0,11.446,90384.976,953.353,11.444,90386.578,953.527,14514,0.216,953.527,-20175206.0,11.874,1.737,0.0,0.0,0.0,4.41,0.134
14556,2,14556,42,0.901,0.341,0.506,63.636,-32.37,68.152,0.41,0.44,0.38,-491.0,0.595,0.882,0.535,63.373,-32.212,68.254,0.28,0.82,0.85,-491.0,11.443,90385.421,953.144,11.435,90385.367,952.783,14556,0.506,952.783,-20190398.0,-17.716,3.134,0.0,0.0,0.0,4.41,0.314
14592,2,14592,36,0.505,0.347,0.5,63.650,-32.95,68.149,0.6,0.125,0.23,-491.0,0.725,0.559,1.151,63.738,-32.358,68.21,0.17,0.185,0.21,-491.0,11.441,90385.218,953.227,11.439,90390.46,953.306,14592,0.5,953.306,-20199620.0,14.539,1.696,0.0,0.0,0.0,4.34,0.3
14636,2,14636,44,0.414,0.239,0.13,63.431,-32.198,68.240,0.9,0.51,0.86,-491.0,0.308,0.251,0.284,63.285,-32.388,68.357,0.15,0.79,0.141,-491.0,11.441,90387.273,953.284,11.444,90391.101,953.706,14636,0.13,953.706,-20199458.0,9.76,1.785,0.0,0.0,0.0,4.41,0.8
14672,2,14672,36,0.739,0.290,0.70,63.297,-32.478,68.246,0.19,0.27,0.83,-491.0,-2.17,0.222,0.635,62.803,-33.235,68.313,0.49,0.61,0.107,-491.0,11.439,90387.960,953.345,11.435,90386.726,953.403,14672,0.70,953.403,-20200488.0,-8.412,2.337,0.0,0.0,0.0,4.41,0.43
14742,2,14742,70,0.904,0.390,0.154,63.270,-32.578,68.228,0.13,0.51,0.56,-491.0,0.875,0.538,0.470,63.154,-32.695,68.196,0.7,0.136,0.32,-491.0,11.439,90387.601,953.276,11.444,90384.765,953.182,14742,0.154,953.182,-20208370.0,-3.159,2.104,0.0,0.0,0.0,4.34,0.96
14779,2,14779,37,0.492,0.709,0.109,63.253,-32.741,68.120,0.19,0.75,0.44,-491.0,1.464,-2.476,0.305,63.285,-33.31,67.714,0.55,0.38,0.27,-491.0,11.438,90387.453,953.337,11.426,90384.617,953.86,14779,0.109,953.86,-20213254.0,-2.579,2.83,0.0,0.0,0.0,4.34,0.67
14820,2,14820,41,0.723,0.426,0.430,62.969,-32.870,67.994,0.21,0.92,0.45,-491.0,-1.880,0.854,0.456,62.320,-33.2,67.392,0.8,0.267,0.18,-491.0,11.437,90387.265,953.273,11.435,90389.140,952.990,14820,0.430,952.990,-20224316.0,-2.353,2.75,0.0,0.0,0.0,4.28,0.267
14856,2,14856,36,0.910,0.680,0.492,62.700,-32.975,67.641,0.16,0.139,0.10,-491.0,-1.241,-1.19,0.592,61.940,-32.914,66.588,0.7,0.316,0.138,-491.0,11.436,90386.156,953.174,11.439,90385.523,953.210,14856,0.492,953.210,-20240930.0,6.113,1.845,0.0,0.0,0.0,4.34,0.305
14899,2,14899,43,0.235,0.15,0.437,62.423,-32.934,67.255,0.32,0.221,0.24,-491.0,1.356,3.101,4.15,61.414,-33.31,66.384,0.126,0.346,0.38,-491.0,11.437,90385.914,953.133,11.439,90385.523,953.197,14899,0.437,953.197,-20242098.0,0.308,2.9,0.0,0.0,0.0,4.34,0.271
14935,2,14935,36,1.2,1.75,0.24,62.110,-33.174,66.895,0.84,0.120,0.12,-491.0,5.312,4.917,-2.782,61.590,-33.893,66.398,0.256,0.367,0.30,-491.0,11.437,90386.523,953.199,11.444,90387.781,953.513,14935,0.24,953.513,-20234652.0,8.794,1.791,0.0,0.0,0.0,4.34,0.15
14978,2,14978,43,0.119,1.500,0.318,62.72,-33.206,66.737,0.112,0.68,0.45,-491.0,-2.950,0.351,-1.777,63.95,-33.192,66.924,0.194,0.904,0.137,-491.0,11.441,90387.359,953.224,11.449,90388.843,953.210,14978,0.318,953.210,-20242026.0,-7.54,2.268,0.0,0.0,0.0,4.34,0.197
15014,2,15014,36,0.199,1.264,0.330,62.432,-33.227,66.612,0.108,0.93,0.50,-491.0,-1.478,0.323,0.513,64.118,-33.104,66.764,0.25,0.138,0.46,-491.0,11.443,90387.62,953.392,11.444,90387.632,953.830,15014,0.330,953.830,-20253704.0,17.235,1.659,0.0,0.0,0.0,4.34,0.204
15057,2,15057,43,0.459,1.346,0.301,62.820,-33.297,66.600,0.101,0.122,0.35,-491.0,0.57,0.610,0.449,63.884,-33.265,66.530,0.44,0.173,0.60,-491.0,11.445,90388.148,953.373,11.449,90390.953,953.113,15057,0.301,953.113,-20267282.0,-16.675,3.1,0.0,0.0,0.0,4.41,0.186
15093,2,15093,36,0.167,0.545,0.868,63.75,-33.420,66.653,0.71,0.167,0.50,-491.0,-1.780,0.904,1.180,62.686,-33.645,66.647,0.24,0.120,0.40,-491.0,11.446,90389.234,953.337,11.444,90390.953,953.17,15093,0.868,953.17,-20288340.0,-2.665,2.86,0.0,0.0,0.0,4.34,0.538
15135,2,15135,42,-1.218,0.459,0.301,63.28,-33.373,66.664,0.6,0.36,0.56,-491.0,0.57,0.107,0.53,61.356,-33.659,66.457,0.66,0.289,0.3,-491.0,11.449,90388.718,953.342,11.458,90385.218,953.541,15135,0.301,953.541,-20312908.0,12.462,1.727,0.0,0.0,0.0,4.34,0.186
15171,2,15171,36,0.756,0.485,0.15,62.537,-33.484,66.600,0.68,0.296,0.40,-491.0,0.638,0.480,0.348,60.640,-33.747,66.603,0.182,0.757,0.58,-491.0,11.449,90387.984,953.409,11.453,90385.218,953.541,15171,0.15,953.541,-20318616.0,0.0,2.0,0.0,0.0,0.0,4.34,0.9
15214,2,15214,43,-3.594,0.552,0.87,62.163,-33.925,66.346,0.27,0.89,0.5,-491.0,-15.670,4.867,0.2,62.247,-35.311,65.492,0.180,0.892,0.130,-491.0,11.451,90388.625,953.329,11.453,90390.804,953.431,15214,0.87,953.431,-20317068.0,-2.566,2.83,0.0,0.0,0.0,4.34,0.54
15276,2,15276,62,-4.449,0.858,0.640,62.57,-34.364,65.998,0.13,0.48,0.28,-491.0,-4.213,0.918,-4.88,63.358,-35.457,64.790,0.160,0.30,0.105,-491.0,11.452,90388.664,953.409,11.453,90391.101,953.513,15276,0.640,953.513,-20334198.0,1.334,1.961,0.0,0.0,0.0,4.34,0.397
15319,2,15319,43,-4.360,1.81,0.979,62.57,-34.796,65.758,0.15,0.40,0.67,-491.0,-1.335,0.208,0.513,62.686,-35.808,65.448,0.15,0.76,0.157,-491.0,11.454,90388.453,953.469,11.453,90389.898,953.321,15319,0.979,953.321,-20369012.0,-4.476,2.155,0.0,0.0,0.0,4.34,0.607
15356,2,15356,37,-5.688,2.219,-2.358,62.244,-35.255,65.825,0.296,0.162,0.118,-491.0,-6.582,5.584,-6.845,62.291,-35.954,66.793,1.339,0.899,0.258,-491.0,11.453,90388.23,953.365,11.453,90383.101,953.17,15356,-2.358,953.17,-20430762.0,-8.198,2.326,0.0,0.0,0.0,4.34,-1.462
15398,2,15398,42,-5.737,2.911,-3.794,62.22,-35.676,66.97,0.453,0.47,0.163,-491.0,0.882,2.979,-7.527,59.529,-35.852,67.962,0.601,0.182,0.166,-491.0,11.453,90387.812,953.241,11.453,90384.164,952.920,15398,-3.794,952.920,-20559980.0,-2.310,2.74,0.0,0.0,0.0,4.21,-2.352
15440,2,15440,42,-2.902,2.150,-3.827,61.403,-35.779,66.889,0.417,0.235,0.128,-491.0,-1.500,1.62,0.162,59.149,-35.822,69.453,0.1,0.51,0.44,-491.0,11.452,90387.601,953.97,11.449,90389.742,952.714,15440,-3.827,952.714,-20720040.0,-4.911,2.172,0.0,0.0,0.0,4.34,-2.373
15477,2,15477,37,-2.422,2.42,-3.46,60.707,-35.828,67.708,0.391,0.246,0.108,-491.0,-1.808,0.380,0.183,59.880,-35.705,68.883,0.30,0.20,0.6,-491.0,11.453,90387.546,953.20,11.458,90390.804,953.127,15477,-3.46,953.127,-20847208.0,11.164,1.749,0.0,0.0,0.0,4.41,-1.889
15519,2,15519,42,-2.562,2.255,-3.9,60.248,-35.770,68.348,0.409,0.221,0.90,-491.0,-2.38,1.270,0.327,60.391,-35.515,68.649,0.72,0.47,0.68,-491.0,11.457,90386.609,952.880,11.472,90385.218,952.618,15519,-3.9,952.618,-20974374.0,-12.119,2.571,0.0,0.0,0.0,4.41,-1.865
15555,2,15555,36,-1.727,0.364,-1.922,59.900,-35.434,68.669,0.160,0.88,0.11,-491.0,-2.404,-3.869,-1.411,60.552,-34.273,68.401,0.94,0.235,0.138,-491.0,11.459,90387.210,952.822,11.462,90386.117,952.728,15555,-1.922,952.728,-21063140.0,3.48,1.916,0.0,0.0,0.0,4.41,-1.192
15599,2,15599,44,-1.378,1.748,-2.299,60.336,-34.820,68.719,0.235,0.53,0.34,-491.0,0.861,9.899,-9.415,61.707,-32.782,68.211,0.977,0.8,0.63,-491.0,11.462,90387.640,952.764,11.472,90386.273,952.631,15599,-2.299,952.631,-21156028.0,-2.193,2.70,0.0,0.0,0.0,4.41,-1.426
15635,2,15635,36,-2.478,0.870,0.706,61.34,-34.83,68.576,0.198,0.277,0.110,-491.0,-6.999,-3.330,7.805,62.642,-32.139,68.737,0.185,-1.606,0.424,-491.0,11.466,90387.148,952.786,11.467,90387.328,952.824,15635,0.706,952.824,-21210138.0,5.360,1.861,0.0,0.0,0.0,4.41,0.437
15677,2,15677,42,-2.783,0.364,-1.167,61.935,-33.335,68.211,0.213,0.369,0.106,-491.0,-3.337,-2.146,-2.487,64.381,-31.964,67.56,0.109,0.439,0.26,-491.0,11.468,90385.765,952.706,11.467,90383.859,952.728,15677,-1.167,952.728,-21249480.0,-2.297,2.74,0.0,0.0,0.0,4.41,0.723
15713,2,15713,36,-3.91,0.307,-1.659,62.812,-32.727,67.801,0.66,0.237,0.103,-491.0,-3.574,-2.88,-2.789,64.776,-32.475,66.603,0.664,0.612,0.83,-491.0,11.467,90386.609,952.852,11.467,90389.437,953.348,15713,-1.659,953.348,-21300360.0,17.235,1.659,0.0,0.0,0.0,4.47,-1.29
15756,2,15756,43,-2.966,0.40,-1.567,63.715,-32.423,67.456,0.63,0.320,0.82,-491.0,-1.780,-2.533,0.951,65.68,-32.753,66.676,0.77,0.178,0.36,-491.0,11.470,90386.609,952.935,11.476,90386.117,953.142,15756,-1.567,953.142,-21369746.0,-4.810,2.168,0.0,0.0,0.0,4.34,0.972
15819,2,15819,63,-2.859,-2.235,0.580,64.299,-32.434,66.781,0.186,0.454,0.111,-491.0,1.392,-1.76,1.323,64.630,-32.841,64.834,0.271,0.662,0.208,-491.0,11.471,90386.875,953.97,11.476,90387.632,953.444,15819,0.580,953.444,-21400854.0,4.806,1.873,0.0,0.0,0.0,4.41,0.359
15861,2,15861,42,-3.69,-1.590,-1.368,65.434,-32.519,65.641,0.78,0.110,0.80,-491.0,-8.47,0.107,-1.935,68.313,-32.563,63.37,0.357,0.115,0.270,-491.0,11.468,90388.23,953.158,11.453,90393.62,953.127,15861,-1.368,953.127,-21417402.0,-7.550,2.292,0.0,0.0,0.0,4.41,0.848
15899,2,15899,38,-2.564,-1.127,0.902,66.150,-32.633,64.931,0.94,0.190,0.38,-491.0,0.811,0.172,0.162,67.962,-32.534,63.504,0.28,0.838,0.239,-491.0,11.466,90388.953,953.117,11.458,90388.539,952.521,15899,0.902,952.521,-21460552.0,-15.951,2.917,0.0,0.0,0.0,4.47,0.559
15940,2,15940,41,-2.304,0.867,0.173,66.769,-32.660,64.288,0.9,0.266,0.108,-491.0,-2.275,0.789,0.857,67.874,-32.607,63.387,0.239,0.230,0.265,-491.0,11.464,90389.679,953.114,11.458,90393.62,953.334,15940,0.173,953.334,-21482622.0,19.828,1.627,0.0,0.0,0.0,4.47,0.107
15976,2,15976,36,-2.311,0.697,0.206,67.234,-32.639,63.756,0.105,0.72,0.149,-491.0,-1.816,-1.686,-1.116,67.392,-32.651,64.16,0.401,1.515,0.244,-491.0,11.462,90389.437,953.218,11.467,90384.914,953.666,15976,0.206,953.666,-21489466.0,9.207,1.783,0.0,0.0,0.0,4.41,0.128
16019,2,16019,43,-2.881,0.607,0.601,67.565,-32.733,63.729,0.28,0.298,0.95,-491.0,-1.457,0.624,0.650,66.281,-33.308,64.703,0.113,0.468,0.64,-491.0,11.460,90388.921,953.218,11.462,90385.62,953.444,16019,0.601,953.444,-21506840.0,-5.143,2.182,0.0,0.0,0.0,4.41,0.372
16055,2,16055,36,-1.742,0.714,0.200,67.126,-32.946,64.346,0.75,0.392,0.29,-491.0,-2.354,0.646,0.67,66.121,-33.630,66.121,0.124,0.588,0.57,-491.0,11.464,90387.781,953.161,11.476,90387.328,952.838,16055,0.200,952.838,-21521282.0,-16.837,3.20,0.0,0.0,0.0,4.41,0.124
16097,2,16097,42,-1.796,-1.45,0.175,66.597,-33.60,64.916,0.58,0.573,0.79,-491.0,-1.76,-1.478,0.32,65.317,-33.104,66.354,0.113,0.64,0.8,-491.0,11.466,90386.421,953.304,11.467,90381.742,953.237,16097,0.175,953.237,-21529178.0,9.506,1.778,0.0,0.0,0.0,4.47,0.108
16133,2,16133,36,-1.241,0.689,0.423,66.65,-33.238,65.568,0.34,0.388,0.18,-491.0,0.495,0.990,0.384,65.214,-33.498,66.647,0.225,0.693,0.222,-491.0,11.467,90385.62,953.202,11.462,90386.273,952.824,16133,0.423,952.824,-21539950.0,-11.474,2.524,0.0,0.0,0.0,4.47,0.262
16176,2,16176,43,-1.307,0.541,0.328,65.895,-33.329,65.977,0.136,0.127,0.62,-491.0,-2.146,0.947,0.643,66.544,-33.104,66.62,0.106,-1.63,0.24,-491.0,11.468,90384.671,953.94,11.472,90382.953,953.127,16176,0.328,953.127,-21556120.0,7.41,1.825,0.0,0.0,0.0,4.41,0.203
16212,2,16212,36,-1.438,0.613,0.221,66.103,-33.341,65.948,0.47,0.332,0.44,-491.0,-2.110,0.983,0.111,67.319,-33.367,64.557,0.330,0.560,0.23,-491.0,11.467,90386.484,953.34,11.458,90394.117,953.142,16212,0.221,953.142,-21566014.0,0.398,1.988,0.0,0.0,0.0,4.47,0.137
16255,2,16255,43,-1.622,0.272,0.337,66.620,-33.455,65.542,0.60,0.516,0.38,-491.0,-3.273,1.55,0.513,68.707,-34.200,64.89,0.417,0.331,0.24,-491.0,11.463,90387.875,953.9,11.458,90394.273,952.714,16255,0.337,952.714,-21578018.0,-9.940,2.424,0.0,0.0,0.0,4.47,0.209
16291,2,16291,36,-2.104,0.45,0.716,67.319,-33.791,64.814,0.225,0.661,0.98,-491.0,-3.488,0.114,-1.928,68.810,-34.785,62.715,0.713,0.660,0.295,-491.0,11.463,90389.445,953.92,11.467,90389.593,953.651,16291,0.716,953.651,-21596982.0,26.14,1.561,0.0,0.0,0.0,4.41,0.444
16360,2,16360,69,-2.749,0.93,0.750,68.500,-34.492,63.466,0.190,0.534,0.106,-491.0,-2.727,1.227,0.556,71.119,-37.6,59.909,0.401,0.56,0.259,-491.0,11.465,90389.960,953.86,11.472,90388.843,952.796,16360,0.750,952.796,-21647596.0,-12.382,2.591,0.0,0.0,0.0,4.47,0.465
16396,2,16396,36,-3.65,0.340,0.653,69.368,-35.121,62.291,0.83,0.343,0.181,-491.0,-3.725,0.287,0.154,70.885,-36.246,60.187,0.645,0.108,0.351,-491.0,11.460,90390.679,952.918,11.444,90386.578,952.287,16396,0.653,952.287,-21672866.0,-14.155,2.738,0.0,0.0,0.0,4.47,0.405
16439,2,16439,43,-3.655,0.535,-1.7,70.58,-35.691,61.315,0.84,0.147,0.219,-491.0,-5.60,0.7,-1.884,70.768,-36.217,59.675,0.335,0.417,0.166,-491.0,11.459,90390.953,952.973,11.453,90395.484,953.417,16439,-1.7,953.417,-21708576.0,26.280,1.559,0.0,0.0,0.0,4.41,0.624
16475,2,16475,36,-3.177,0.186,0.913,70.245,-36.202,60.418,0.38,0.197,0.324,-491.0,0.882,0.689,0.40,69.643,-36.758,59.602,0.197,0.581,0.550,-491.0,11.457,90390.742,952.929,11.449,90393.218,952.493,16475,0.913,952.493,-21743150.0,-25.660,5.344,0.0,0.0,0.0,4.41,0.566
16518,2,16518,43,-3.172,0.505,0.691,70.517,-36.655,59.549,0.204,0.160,0.325,-491.0,-3.467,1.708,0.822,70.169,-37.50,58.374,0.115,0.475,0.298,-491.0,11.456,90391.921,952.821,11.462,90395.484,953.113,16518,0.691,953.113,-21777656.0,14.428,1.697,0.0,0.0,0.0,4.34,0.429
16554,2,16554,36,-2.492,0.157,0.666,70.561,-36.807,59.111,0.50,0.439,0.294,-491.0,0.674,0.509,0.427,71.338,-37.766,57.717,0.369,-1.452,0.105,-491.0,11.452,90391.648,952.865,11.453,90387.484,953.17,16554,0.666,953.17,-21802100.0,-2.665,2.86,0.0,0.0,0.0,4.34,0.413
16597,2,16597,43,3.134,1.724,-5.42,71.236,-37.228,57.985,0.320,0.741,0.281,-491.0,24.406,8.118,-22.34,74.261,-38.351,54.560,-1.211,-1.615,0.288,-491.0,11.453,90392.765,953.12,11.449,90392.164,953.17,16597,-5.42,953.17,-21924824.0,0.0,2.0,0.0,0.0,0.0,4.34,-3.126
16633,2,16633,36,2.600,2.37,-4.971,72.358,-37.895,56.503,0.261,-1.35,0.288,-491.0,-7.731,1.557,-1.533,76.381,-39.549,52.265,0.37,-1.54,0.199,-491.0,11.454,90392.492,952.893,11.458,90394.117,952.824,16633,-4.971,952.824,-22105072.0,-5.362,2.191,0.0,0.0,0.0,4.41,-3.82
16675,2,16675,42,1.279,2.355,-4.988,73.498,-38.494,55.100,0.215,0.718,0.162,-491.0,-7.487,0.904,0.126,75.343,-39.754,52.586,0.423,1.5,0.80,-491.0,11.456,90392.15,952.979,11.458,90390.804,952.920,16675,-4.988,952.920,-22314246.0,2.285,1.935,0.0,0.0,0.0,4.34,-3.93
16711,2,16711,36,1.688,1.775,-5.570,74.226,-38.851,54.171,0.241,0.533,0.101,-491.0,-1.421,-1.191,-3.729,73.808,-38.833,53.726,0.11,0.451,0.6,-491.0,11.455,90392.187,952.797,11.458,90396.382,952.204,16711,-5.570,952.204,-22504314.0,-19.900,3.481,0.0,0.0,0.0,4.34,-3.454
16754,2,16754,43,0.285,2.558,-5.866,74.641,-39.128,53.650,0.160,0.7,0.64,-491.0,-9.195,3.402,-1.906,73.414,-39.155,55.115,0.35,1.176,0.76,-491.0,11.457,90393.765,952.816,11.462,90395.328,953.113,16754,-5.866,953.113,-22750200.0,21.149,1.611,0.0,0.0,0.0,4.41,-3.637
16795,2,16795,41,-6.233,1.191,-1.798,74.244,-39.152,53.881,0.114,0.438,0.77,-491.0,-5.333,1.284,-1.698,72.274,-38.468,55.714,0.163,0.614,0.349,-491.0,11.461,90393.250,952.796,11.467,90389.593,952.920,16795,-1.798,952.920,-22907332.0,-4.707,2.164,0.0,0.0,0.0,4.34,-1.115
16842,2,16842,47,-5.419,1.25,-1.768,73.306,-39.178,54.905,0.172,0.672,0.49,-491.0,-3.661,0.725,-1.382,71.689,-39.681,57.380,0.253,0.114,0.62,-491.0,11.461,90392.585,952.733,11.462,90390.804,952.507,16842,-1.768,952.507,-22991168.0,-8.802,2.358,0.0,0.0,0.0,4.34,-1.96
16886,2,16886,44,-4.871,1.91,-2.19,72.508,-38.930,55.863,0.74,0.505,0.14,-491.0,-4.744,1.234,-1.382,71.353,-38.512,57.380,0.67,0.168,0.254,-491.0,11.463,90393.273,952.711,11.467,90394.273,952.810,16886,-2.19,952.810,-23074518.0,6.894,1.828,0.0,0.0,0.0,4.34,-1.252
16923,2,16923,37,-5.452,1.365,-1.494,72.87,-38.897,56.679,0.91,0.459,0.20,-491.0,-4.328,0.179,-1.102,71.704,-38.672,57.804,0.75,0.224,0.22,-491.0,11.464,90392.164,952.876,11.462,90390.804,953.31,16923,-1.494,953.31,-23139534.0,5.963,1.848,0.0,0.0,0.0,4.34,0.926
16964,2,16964,41,-4.331,0.905,-1.349,71.698,-38.804,57.243,0.89,0.227,0.80,-491.0,-3.589,1.105,-1.181,71.470,-38.687,57.936,0.23,0.14,0.221,-491.0,11.463,90391.468,952.962,11.458,90391.859,953.541,16964,-1.349,953.541,-23197834.0,12.443,1.728,0.0,0.0,0.0,4.34,0.836
17000,2,17000,36,-4.64,0.993,-1.283,71.487,-38.906,57.550,0.63,0.140,0.3,-491.0,-3.998,1.722,-1.368,71.221,-38.979,57.249,0.32,0.178,0.33,-491.0,11.461,90392.140,952.923,11.458,90392.914,952.728,17000,-1.283,952.728,-23245226.0,-22.583,4.100,0.0,0.0,0.0,4.34,0.795
17044,2,17044,44,-4.12,1.16,-1.182,71.359,-38.702,57.699,0.4,0.138,0.5,-491.0,-3.402,0.839,0.879,71.46,-38.658,58.126,0.42,0.105,0.14,-491.0,11.464,90392.578,952.946,11.476,90393.62,952.618,17044,-1.182,952.618,-23299486.0,-2.494,2.80,0.0,0.0,0.0,4.34,0.733
17080,2,17080,36,-4.136,1.0,-1.198,71.286,-38.810,57.743,0.0,0.104,0.59,-491.0,-5.362,1.155,-1.461,70.988,-39.52,57.600,0.87,0.1,0.72,-491.0,11.464,90392.976,952.907,11.467,90396.234,952.618,17080,-1.198,952.618,-23342356.0,0.0,2.0,0.0,0.0,0.0,4.34,0.743
17122,2,17122,42,-3.949,1.157,-1.233,71.110,-39.11,57.696,0.13,0.177,0.16,-491.0,-3.395,0.961,-1.274,70.827,-39.681,57.570,0.3,0.591,0.192,-491.0,11.466,90392.726,952.888,11.472,90389.593,952.935,17122,-1.233,952.935,-23393426.0,7.536,1.815,0.0,0.0,0.0,4.28,0.764
17158,2,17158,36,-3.781,1.233,-1.131,70.961,-39.20,57.810,0.109,0.312,0.116,-491.0,-2.749,1.485,0.671,70.724,-38.731,58.506,0.639,0.687,0.441,-491.0,11.468,90393.609,952.747,11.467,90396.234,952.838,17158,-1.131,952.838,-23435986.0,-2.680,2.87,0.0,0.0,0.0,4.34,0.701
17201,2,17201,43,-3.775,0.882,-1.7,70.897,-38.804,58.243,0.58,0.307,0.171,-491.0,-3.969,0.28,0.750,70.900,-37.898,59.412,0.804,0.152,0.311,-491.0,11.471,90392.484,952.811,11.472,90387.328,953.46,17201,-1.7,953.46,-23481974.0,4.823,1.873,0.0,0.0,0.0,4.34,0.624
17237,2,17237,36,-3.557,0.776,-1.125,70.704,-38.681,58.380,0.161,0.397,0.148,-491.0,-2.311,0.308,-1.468,70.81,-38.44,58.813,0.561,0.556,0.131,-491.0,11.472,90391.976,952.836,11.481,90390.500,952.742,17237,-1.125,952.742,-23520372.0,-8.426,2.338,0.0,0.0,0.0,4.34,0.697
17279,2,17279,42,-3.53,0.904,-1.152,70.388,-38.669,58.696,0.86,0.528,0.84,-491.0,-2.842,1.794,-1.597,69.409,-38.994,59.178,0.287,0.652,0.391,-491.0,11.475,90391.70,952.861,11.485,90391.703,952.742,17279,-1.152,952.742,-23568216.0,0.0,2.0,0.0,0.0,0.0,4.34,0.714
17315,2,17315,36,-3.250,0.703,-1.22,69.842,-38.593,59.263,0.136,0.414,0.52,-491.0,-4.378,0.43,0.621,68.94,-39.301,60.406,0.245,0.23,0.492,-491.0,11.477,90391.15,952.908,11.481,90389.289,953.169,17315,-1.22,953.169,-23607364.0,11.857,1.737,0.0,0.0,0.0,4.41,0.633
17384,2,17384,69,-3.185,0.923,-1.126,69.11,-38.930,59.532,0.256,0.259,0.256,-491.0,-2.426,2.584,-1.195,66.574,-40.412,59.850,0.41,0.89,0.576,-491.0,11.480,90389.671,952.885,11.481,90389.593,952.728,17384,-1.126,952.728,-23681506.0,-6.394,2.237,0.0,0.0,0.0,4.28,0.698
17421,2,17421,37,-3.152,1.427,-1.365,68.94,-39.365,59.760,0.27,0.256,0.477,-491.0,-3.804,2.490,-1.942,66.311,-40.76,60.552,0.613,0.139,0.796,-491.0,11.479,90390.140,952.723,11.467,90389.593,952.232,17421,-1.365,952.232,-23727612.0,-13.414,2.673,0.0,0.0,0.0,4.34,0.846
17464,2,17464,43,-3.10,1.450,-1.218,67.85,-39.929,60.263,0.109,0.226,0.507,-491.0,-1.600,0.423,0.736,65.39,-40.865,61.327,0.149,0.407,0.279,-491.0,11.478,90389.500,952.783,11.476,90387.328,953.46,17464,-1.218,953.46,-23783170.0,18.930,1.637,0.0,0.0,0.0,4.28,0.755
17501,2,17501,37,-2.199,1.905,-1.929,65.948,-40.377,60.722,0.24,0.562,0.484,-491.0,1.213,4.70,-5.151,63.724,-41.230,61.473,0.136,2.331,0.276,-491.0,11.476,90390.164,952.742,11.476,90395.23,952.535,17501,-1.929,952.535,-23841414.0,-13.803,2.706,0.0,0.0,0.0,4.34,-1.196
17546,2,17546,45,-3.200,1.613,-1.696,64.869,-40.663,61.201,0.95,0.357,0.462,-491.0,-9.382,-1.500,0.541,62.700,-40.733,62.803,0.110,-1.0,0.383,-491.0,11.476,90390.648,952.739,11.481,90391.703,953.155,17546,-1.696,953.155,-23923008.0,13.788,1.707,0.0,0.0,0.0,4.34,-1.52
17582,2,17582,36,-3.928,1.184,-1.902,63.928,-40.727,61.911,0.105,0.578,0.371,-491.0,-6.65,0.437,-2.222,61.867,-40.733,63.402,0.92,1.16,0.120,-491.0,11.475,90390.828,952.786,11.476,90390.500,952.962,17582,-1.902,952.962,-23987792.0,-5.362,2.191,0.0,0.0,0.0,4.34,-1.179
17625,2,17625,43,-3.149,0.870,-1.220,62.999,-40.792,62.630,0.13,0.329,0.249,-491.0,0.86,0.918,1.467,61.663,-40.397,64.147,0.151,-1.106,0.186,-491.0,11.479,90390.562,952.869,11.485,90388.234,952.645,17625,-1.220,952.645,-24054924.0,-7.388,2.284,0.0,0.0,0.0,4.34,0.756
17661,2,17661,36,-3.577,0.568,0.954,62.487,-40.745,62.978,0.7,0.213,0.229,-491.0,-3.739,-1.83,0.591,62.481,-40.631,63.66,0.253,0.173,0.180,-491.0,11.480,90392.93,952.910,11.481,90395.23,953.251,17661,0.954,953.251,-24094072.0,16.852,1.664,0.0,0.0,0.0,4.34,0.591
17703,2,17703,42,-4.498,0.212,0.17,62.230,-40.789,63.180,0.311,0.208,0.141,-491.0,-3.388,0.165,0.291,62.437,-41.449,62.481,-1.658,0.221,0.160,-491.0,11.481,90391.398,953.138,11.481,90391.554,953.679,17703,0.17,953.679,-24113756.0,10.178,1.766,0.0,0.0,0.0,4.41,0.10
17739,2,17739,36,-4.21,1.267,0.88,62.119,-41.300,62.803,0.222,0.235,0.69,-491.0,-6.999,5.900,0.10,62.145,-43.291,60.917,0.553,1.216,0.22,-491.0,11.481,90390.671,953.163,11.481,90388.78,953.279,17739,0.88,953.279,-24115044.0,-11.108,2.499,0.0,0.0,0.0,4.47,0.55
17782,2,17782,43,-2.651,1.155,0.150,61.940,-41.625,62.814,0.102,0.198,0.1,-491.0,0.782,0.122,-2.531,60.976,-42.356,63.460,0.695,0.831,0.221,-491.0,11.482,90389.78,953.122,11.481,90382.500,952.755,17782,0.150,952.755,-24120194.0,-12.171,2.575,0.0,0.0,0.0,4.34,0.93
17818,2,17818,36,-3.22,1.590,0.460,61.692,-41.908,62.683,0.274,0.457,0.1,-491.0,-1.765,3.93,0.83,60.420,-41.815,63.490,0.709,0.190,0.185,-491.0,11.483,90389.507,953.227,11.490,90390.343,953.169,17818,0.460,953.169,-24131200.0,11.489,1.743,0.0,0.0,0.0,4.47,0.285
17887,2,17887,69,-2.470,1.860,0.595,60.751,-42.262,62.911,0.31,0.707,0.88,-491.0,0.983,0.265,0.83,57.775,-42.399,64.206,0.963,1.78,0.269,-491.0,11.485,90388.390,953.208,11.495,90389.437,953.155,17887,0.595,953.155,-24167648.0,0.199,2.6,0.0,0.0,0.0,4.41,0.369
17923,2,17923,36,-2.64,2.38,0.485,59.693,-42.265,63.408,0.229,0.839,0.62,-491.0,-1.356,1.55,0.261,57.147,-41.464,64.966,0.354,0.878,0.27,-491.0,11.483,90387.515,953.147,11.467,90387.179,953.375,17923,0.485,953.375,-24187104.0,6.113,1.845,0.0,0.0,0.0,4.47,0.300
17965,2,17965,42,0.887,1.187,-1.167,58.281,-41.914,64.256,0.335,0.700,0.33,-491.0,-1.112,1.643,-3.399,55.86,-41.537,65.156,1.80,0.522,0.498,-491.0,11.484,90387.992,953.224,11.485,90390.500,953.666,17965,-1.167,953.666,-24221802.0,6.907,1.828,0.0,0.0,0.0,4.41,0.723
18001,2,18001,36,0.822,1.326,0.683,56.924,-41.309,65.10,0.483,0.566,0.158,-491.0,1.105,0.574,0.111,54.194,-39.330,67.231,1.438,0.164,0.405,-491.0,11.484,90389.593,953.368,11.485,90390.500,953.472,18001,0.683,953.472,-24255110.0,-5.362,2.191,0.0,0.0,0.0,4.34,0.423
18045,2,18045,44,0.305,0.509,0.921,55.597,-40.491,66.80,0.663,0.497,0.248,-491.0,0.818,0.990,-1.274,53.785,-37.722,68.839,0.190,0.157,0.634,-491.0,11.485,90389.625,953.346,11.495,90390.500,953.59,18045,0.921,953.59,-24290418.0,-9.400,2.392,0.0,0.0,0.0,4.41,0.571
18086,2,18086,41,0.590,0.628,0.808,54.598,-39.798,66.916,0.551,0.215,0.532,-491.0,-2.404,0.861,0.483,52.776,-38.935,68.386,0.402,0.331,-1.153,-491.0,11.483,90388.476,953.307,11.481,90383.703,952.962,18086,0.808,952.962,-24325880.0,-2.355,2.76,0.0,0.0,0.0,4.47,0.501
18122,2,18122,36,-1.415,1.102,0.852,53.569,-39.172,67.696,0.942,0.174,0.834,-491.0,-5.484,3.424,0.38,52.2,-38.336,68.868,1.601,0.674,-1.482,-491.0,11.486,90387.750,953.205,11.485,90383.554,952.866,18122,0.852,952.866,-24355776.0,-2.680,2.87,0.0,0.0,0.0,4.41,0.528
18167,2,18167,45,-1.814,0.142,0.419,52.399,-37.658,68.962,1.212,0.107,0.950,-491.0,-3.108,-4.579,-1.231,49.239,-33.966,71.484,2.426,0.890,-1.77,-491.0,11.487,90388.171,953.144,11.490,90392.609,953.362,18167,0.419,953.362,-24384392.0,11.31,1.751,0.0,0.0,0.0,4.47,0.259
18203,2,18203,36,-2.189,0.758,0.447,51.137,-35.980,70.242,1.296,0.181,-1.601,-491.0,0.768,-2.505,0.255,47.880,-30.941,73.633,1.860,0.204,-3.661,-491.0,11.487,90387.937,953.103,11.485,90389.289,953.266,18203,0.447,953.266,-24399998.0,-2.682,2.87,0.0,0.0,0.0,4.41,0.277
18245,2,18245,42,-2.47,-1.609,0.374,49.684,-34.446,71.385,1.79,0.415,-2.368,-491.0,1.529,-5.247,0.908,46.521,-30.49,74.554,0.895,-1.323,-4.470,-491.0,11.485,90389.500,953.20,11.485,90398.343,952.645,18245,0.374,952.645,-24417270.0,-14.786,2.797,0.0,0.0,0.0,4.41,0.232
18281,2,18281,36,-2.239,-2.325,0.353,48.175,-33.306,72.347,0.657,0.586,-2.880,-491.0,-3.366,-2.720,0.591,45.235,-33.235,73.194,-1.707,-1.188,-3.710,-491.0,11.486,90390.648,952.979,11.485,90389.437,952.755,18281,0.353,952.755,-24430368.0,3.80,1.915,0.0,0.0,0.0,4.41,0.218
18324,2,18324,43,-1.870,-3.91,-1.514,46.530,-32.423,73.69,0.593,0.654,-2.834,-491.0,-3.639,0.401,-5.768,43.773,-33.922,72.478,1.281,0.332,-1.254,-491.0,11.486,90392.250,952.893,11.485,90391.554,952.439,18324,-1.514,952.439,-24470522.0,-7.362,2.283,0.0,0.0,0.0,4.41,0.939
18387,2,18387,63,-1.814,-2.809,-1.134,45.226,-32.277,73.443,0.82,0.532,-3.15,-491.0,-2.828,-3.172,0.670,42.721,-33.235,73.355,0.126,0.278,-1.980,-491.0,11.484,90391.671,952.744,11.481,90389.742,952.618,18387,-1.134,952.618,-24553954.0,2.845,1.921,0.0,0.0,0.0,4.34,0.703
18429,2,18429,42,-2.60,-2.222,-1.115,43.896,-32.961,73.320,0.191,0.553,-2.558,-491.0,-1.995,0.430,0.162,41.230,-34.361,73.19,0.490,0.308,-1.376,-491.0,11.480,90391.734,952.574,11.462,90389.593,952.411,18429,-1.115,952.411,-24601194.0,-4.924,2.173,0.0,0.0,0.0,4.34,0.691
18466,2,18466,37,-3.270,-1.223,0.973,42.896,-33.525,73.151,0.221,0.321,-1.727,-491.0,-4.522,0.251,0.198,41.522,-32.870,73.706,1.168,0.163,0.313,-491.0,11.476,90389.328,952.590,11.467,90386.273,952.728,18466,0.973,952.728,-24639836.0,8.556,1.795,0.0,0.0,0.0,4.41,0.603
18508,2,18508,42,-2.977,0.805,-1.332,42.66,-33.60,73.443,0.656,0.6,0.990,-491.0,-1.902,0.631,-1.203,41.84,-30.912,74.656,0.466,0.383,0.28,-491.0,11.472,90388.484,952.626,11.467,90385.218,952.935,18508,-1.332,952.935,-24688252.0,4.923,1.871,0.0,0.0,0.0,4.41,0.826
18545,2,18545,37,-3.20,0.989,0.361,41.528,-32.432,73.957,0.435,0.200,-1.69,-491.0,-3.854,-1.320,0.915,41.84,-30.780,75.51,0.179,0.634,-1.649,-491.0,11.469,90388.296,952.767,11.467,90390.648,953.142,18545,0.361,953.142,-24719590.0,5.590,1.856,0.0,0.0,0.0,4.28,0.224
18588,2,18588,43,-3.455,0.657,0.811,40.990,-32.128,74.229,0.310,0.194,0.972,-491.0,-5.3,-1.514,-1.576,40.32,-31.715,74.714,0.750,0.251,-1.491,-491.0,11.468,90388.265,952.871,11.476,90389.593,953.142,18588,0.811,953.142,-24744804.0,0.0,2.0,0.0,0.0,0.0,4.21,0.502
18624,2,18624,36,-3.630,-1.207,-1.47,40.836,-31.578,74.557,0.354,0.182,0.742,-491.0,-2.871,-2.318,-1.346,40.456,-31.613,74.656,0.708,0.245,0.229,-491.0,11.469,90388.484,953.39,11.467,90390.648,953.251,18624,-1.47,953.251,-24778266.0,3.48,1.916,0.0,0.0,0.0,4.34,0.649
18669,2,18669,45,-3.292,-1.445,-1.297,41.213,-31.175,74.831,0.87,0.900,-1.67,-491.0,-2.828,-1.442,-1.447,43.408,-30.853,75.80,0.168,-3.755,-1.939,-491.0,11.471,90389.593,953.17,11.476,90391.859,952.618,18669,-1.297,952.618,-24831046.0,-14.69,2.730,0.0,0.0,0.0,4.34,0.804
18705,2,18705,36,-4.974,-1.194,-1.151,42.680,-31.265,74.893,0.44,-1.469,-1.371,-491.0,-10.315,0.624,0.470,48.421,-31.365,74.963,0.252,-2.462,-1.548,-491.0,11.470,90391.343,952.957,11.462,90393.968,952.631,18705,-1.151,952.631,-24875130.0,0.367,1.989,0.0,0.0,0.0,4.34,0.713
18752,2,18752,47,-4.469,0.814,-1.419,43.802,-31.368,74.896,0.29,-1.194,-1.178,-491.0,-1.328,0.581,-2.258,46.696,-31.292,75.65,0.189,0.741,0.683,-491.0,11.470,90392.953,952.957,11.467,90398.648,953.142,18752,-1.419,953.142,-24935552.0,10.853,1.754,0.0,0.0,0.0,4.34,0.880
18788,2,18788,36,-4.569,0.567,-1.629,44.931,-31.338,74.872,0.122,0.933,0.571,-491.0,-5.505,0.279,-2.624,45.673,-31.569,74.598,0.8,1.53,1.541,-491.0,11.469,90393.195,952.976,11.472,90390.804,953.237,18788,-1.629,953.237,-24990438.0,2.665,1.925,0.0,0.0,0.0,4.28,-1.10
18834,2,18834,46,-6.37,0.261,-1.940,46.343,-31.277,74.805,0.175,0.930,0.405,-491.0,-10.207,1.823,-2.904,47.515,-31.306,74.320,0.971,0.231,0.602,-491.0,11.470,90395.898,952.747,11.472,90404.234,952.108,18834,-1.940,952.108,-25072556.0,-24.553,4.796,0.0,0.0,0.0,4.28,-1.203
18902,2,18902,68,-6.84,0.755,-2.174,46.407,-30.277,75.103,0.547,0.110,0.88,-491.0,-3.65,1.26,-2.617,43.729,-25.855,76.571,1.691,0.348,0.352,-491.0,11.470,90395.265,952.827,11.476,90388.687,953.17,18902,-2.174,953.17,-25212498.0,13.373,1.713,0.0,0.0,0.0,4.34,-1.348
18943,2,18943,41,-4.61,0.526,-2.196,45.542,-28.748,75.589,0.563,0.162,0.358,-491.0,0.200,0.516,0.578,44.95,-23.721,77.389,0.332,-1.98,0.683,-491.0,11.467,90395.328,952.904,11.449,90394.273,953.17,18943,-2.196,953.17,-25302114.0,0.0,2.0,0.0,0.0,0.0,4.34,-1.362
18979,2,18979,36,-5.735,1.115,-2.44,45.507,-27.9,76.161,0.664,0.120,0.701,-491.0,-9.698,3.524,-1.497,46.521,-22.595,77.930,0.320,0.671,1.32,-491.0,11.465,90393.546,952.800,11.458,90389.742,952.618,18979,-2.44,952.618,-25378450.0,-11.91,2.498,0.0,0.0,0.0,4.34,-1.267
19022,2,19022,43,-5.929,0.450,-1.926,45.869,-25.74,76.907,0.659,0.92,0.817,-491.0,-6.474,-3.603,-2.35,47.486,-21.894,78.325,0.19,1.189,2.123,-491.0,11.465,90393.546,952.739,11.472,90390.804,952.935,19022,-1.926,952.935,-25463826.0,7.361,1.819,0.0,0.0,0.0,4.28,-1.194
19063,2,19063,41,-5.398,0.265,-1.260,44.793,-23.148,77.749,0.606,0.409,0.542,-491.0,-7.551,0.897,0.426,42.136,-21.674,78.529,0.709,2.281,0.775,-491.0,11.463,90391.289,952.885,11.462,90392.914,952.838,19063,-1.260,952.838,-25529160.0,-2.353,2.75,0.0,0.0,0.0,4.28,0.781
19099,2,19099,36,-5.200,0.826,-1.19,43.779,-21.558,78.208,0.877,0.634,0.70,-491.0,-2.74,-4.436,-1.411,38.658,-17.904,78.865,3.44,1.471,-2.709,-491.0,11.461,90393.7,952.891,11.467,90397.289,953.46,19099,-1.19,953.46,-25570194.0,5.761,1.852,0.0,0.0,0.0,4.28,0.632
19142,2,19142,43,-6.39,0.534,-1.661,41.932,-18.991,78.351,1.384,0.977,0.924,-491.0,-4.400,0.947,-3.787,34.858,-10.888,78.105,2.866,0.618,-4.292,-491.0,11.467,90392.921,952.670,11.476,90393.820,951.914,19142,-1.661,951.914,-25627820.0,-26.306,5.743,0.0,0.0,0.0,4.28,-1.29
19179,2,19179,37,-5.358,-2.475,-1.718,39.847,-14.750,78.269,2.118,0.830,-1.629,-491.0,-6.288,-6.180,-1.784,36.100,-1.388,77.521,3.993,-1.409,-2.492,-491.0,11.470,90393.515,952.698,11.472,90392.757,952.755,19179,-1.718,952.755,-25690340.0,22.731,1.594,0.0,0.0,0.0,4.34,-1.65
19220,2,19220,41,-4.996,-2.963,-1.698,37.851,-9.403,77.828,2.497,0.671,-2.469,-491.0,-4.666,-6.44,-1.935,37.503,4.837,76.118,1.871,0.397,-2.76,-491.0,11.471,90392.789,952.700,11.476,90387.179,952.948,19220,-1.698,952.948,-25760384.0,4.693,1.876,0.0,0.0,0.0,4.34,-1.53
19256,2,19256,36,-4.291,-3.902,-2.907,37.82,-3.522,77.91,2.553,0.272,-2.801,-491.0,-4.27,-3.797,-5.617,38.292,7.731,74.846,0.992,0.285,-2.436,-491.0,11.473,90392.757,952.579,11.476,90392.757,952.232,19256,-2.907,952.232,-25843284.0,-19.899,3.481,0.0,0.0,0.0,4.28,-1.802
19300,2,19300,44,-4.657,-4.454,-3.73,37.249,2.122,76.121,1.952,0.70,-2.663,-491.0,-3.905,-7.200,-2.243,39.491,10.318,74.13,0.39,0.460,-2.17,-491.0,11.474,90391.187,952.559,11.472,90389.437,952.948,19300,-3.73,952.948,-25974864.0,16.281,1.671,0.0,0.0,0.0,4.34,-1.906
19336,2,19336,36,-4.858,-5.264,-2.755,38.140,6.243,75.255,1.400,0.23,-2.78,-491.0,-5.405,-3.101,-2.193,39.315,9.719,73.779,0.103,0.147,-1.367,-491.0,11.474,90390.976,952.764,11.476,90392.757,952.935,19336,-2.755,952.935,-26079782.0,0.367,2.11,0.0,0.0,0.0,4.34,-1.708
19389,2,19389,53,-4.218,-4.361,-2.321,38.859,8.617,74.615,0.677,0.301,-1.623,-491.0,-3.86,-1.665,0.383,39.695,10.479,74.320,0.382,0.215,0.220,-491.0,11.475,90390.140,952.736,11.476,90388.539,952.618,19389,-2.321,952.618,-26214308.0,-5.972,2.218,0.0,0.0,0.0,4.34,-1.439
19425,2,19425,36,-4.575,-3.559,-3.327,39.450,9.657,74.168,0.213,0.1,-1.268,-491.0,-6.453,-2.31,-6.967,40.456,10.40,73.881,0.451,-1.99,0.298,-491.0,11.473,90390.164,952.753,11.467,90387.328,953.31,19425,-3.327,953.31,-26315994.0,11.459,1.744,0.0,0.0,0.0,4.34,-2.63
19469,2,19469,44,-4.436,-2.971,-2.450,40.470,9.482,74.291,0.396,0.162,0.590,-491.0,-3.330,0.861,-1.231,43.393,6.854,75.460,-2.56,0.535,0.950,-491.0,11.471,90389.765,952.808,11.462,90390.804,952.507,19469,-2.450,952.507,-26443120.0,-11.908,2.555,0.0,0.0,0.0,4.34,-1.519
19505,2,19505,36,-4.832,-2.146,-2.32,41.178,8.167,74.840,0.474,0.258,0.1,-491.0,-5.886,-3.72,0.154,43.28,3.741,76.761,0.352,0.21,0.927,-491.0,11.469,90390.703,952.742,11.462,90394.117,952.618,19505,-2.32,952.618,-26523822.0,3.95,1.915,0.0,0.0,0.0,4.34,-1.260
19547,2,19547,42,-4.281,-2.195,-2.24,40.847,6.913,75.399,0.234,0.165,0.877,-491.0,-2.648,-3.345,-2.150,37.664,3.449,76.571,1.304,0.613,3.26,-491.0,11.467,90390.281,952.637,11.467,90390.648,952.411,19547,-2.24,952.411,-26609020.0,-4.924,2.173,0.0,0.0,0.0,4.28,-1.255
19584,2,19584,37,-4.730,-1.997,-1.923,40.745,5.925,75.697,0.170,0.214,1.272,-491.0,-5.333,0.674,0.885,39.184,5.539,75.811,0.703,0.30,1.755,-491.0,11.463,90390.953,952.720,11.458,90391.859,953.31,19584,-1.923,953.31,-26682058.0,16.740,1.665,0.0,0.0,0.0,4.34,-1.192
19627,2,19627,43,-4.716,-2.183,0.783,40.236,5.89,76.47,0.46,0.33,1.247,-491.0,-6.381,-2.964,-1.267,37.912,5.860,75.635,0.170,0.144,0.424,-491.0,11.463,90391.617,952.615,11.467,90390.648,952.507,19627,0.783,952.507,-26740270.0,-12.185,2.576,0.0,0.0,0.0,4.41,0.486
19663,2,19663,36,-4.236,-1.293,0.343,39.462,4.957,76.106,0.443,0.59,0.728,-491.0,0.933,3.589,0.972,39.520,6.197,75.752,0.393,0.408,-1.639,-491.0,11.463,90392.70,952.717,11.462,90393.62,953.17,19663,0.343,953.17,-26760552.0,14.187,1.701,0.0,0.0,0.0,4.47,0.212
19705,2,19705,42,-4.11,-1.510,0.910,38.649,5.583,75.898,0.680,0.149,0.482,-491.0,-4.759,-4.156,-2.990,38.965,6.869,75.723,0.828,0.428,0.302,-491.0,11.463,90390.765,952.736,11.462,90387.632,952.714,19705,0.910,952.714,-26786868.0,-7.222,2.276,0.0,0.0,0.0,4.47,0.564
19741,2,19741,36,-4.694,-1.651,-1.302,38.778,6.454,75.521,0.377,0.293,0.102,-491.0,-6.65,-4.48,-4.110,38.307,7.804,74.685,0.209,1.332,0.100,-491.0,11.462,90389.898,952.879,11.462,90386.273,953.127,19741,-1.302,953.127,-26826688.0,11.474,1.743,0.0,0.0,0.0,4.47,0.807
19784,2,19784,43,-4.357,-1.985,-1.602,38.170,6.933,75.358,0.272,0.452,0.553,-491.0,-3.646,-2.347,0.614,36.144,7.936,74.992,0.181,0.765,0.503,-491.0,11.464,90388.539,952.940,11.467,90385.62,953.334,19784,-1.602,953.334,-26889128.0,4.810,1.873,0.0,0.0,0.0,4.47,0.993
19820,2,19820,36,-3.675,-1.599,-1.523,37.757,7.527,75.92,0.408,0.432,0.715,-491.0,-2.971,-1.33,0.872,35.852,8.827,74.305,0.850,0.41,-1.231,-491.0,11.463,90387.843,953.26,11.462,90387.179,952.935,19820,-1.523,952.935,-26945384.0,-11.93,2.498,0.0,0.0,0.0,4.34,0.944
19862,2,19862,42,-4.858,-3.36,-2.183,37.220,8.599,74.615,0.523,0.592,0.752,-491.0,-6.848,-3.596,-2.330,36.831,11.560,73.370,0.967,0.393,-1.827,-491.0,11.463,90387.359,953.94,11.462,90390.648,953.362,19862,-2.183,953.362,-27023226.0,10.178,1.766,0.0,0.0,0.0,4.41,-1.354
19930,2,19930,68,-5.83,-2.874,-1.864,36.793,10.73,73.767,0.483,0.775,0.839,-491.0,-5.886,-3.345,-1.396,36.831,14.235,71.484,0.625,1.342,0.738,-491.0,11.465,90386.906,953.342,11.472,90385.367,953.954,19930,-1.864,953.954,-27160874.0,8.702,1.792,0.0,0.0,0.0,4.41,-1.156
19971,2,19971,41,-5.6,-3.105,-1.267,36.109,11.598,73.45,0.598,0.761,-1.12,-491.0,-5.678,-5.204,-1.124,34.887,15.434,71.75,0.365,1.262,0.760,-491.0,11.463,90386.0,953.384,11.453,90381.742,953.334,19971,-1.267,953.334,-27225090.0,-15.120,2.830,0.0,0.0,0.0,4.41,0.786
20007,2,20007,36,-5.12,-3.103,-1.340,35.539,13.218,72.22,0.561,0.825,0.936,-491.0,-3.675,-2.340,0.980,33.294,16.33,69.877,0.1,1.86,0.125,-491.0,11.463,90384.640,953.613,11.467,90378.273,954.479,20007,-1.340,954.479,-27272042.0,31.792,1.511,0.0,0.0,0.0,4.34,0.831
20050,2,20050,43,-5.136,-3.471,-1.505,34.872,14.612,71.131,0.347,0.996,0.834,-491.0,-3.596,-2.871,-1.698,32.519,15.799,69.847,0.220,0.895,0.721,-491.0,11.463,90380.601,954.26,11.462,90366.953,955.3,20050,-1.505,955.3,-27333248.0,12.187,1.732,0.0,0.0,0.0,4.34,0.933
20096,2,20096,46,-4.472,-2.947,-1.184,33.747,15.393,70.257,0.119,1.344,0.747,-491.0,-3.524,0.976,0.722,31.204,15.463,69.0,0.170,2.135,-1.389,-491.0,11.466,90375.140,954.666,11.476,90363.328,956.561,20096,-1.184,956.561,-27395124.0,33.869,1.496,0.0,0.0,0.0,4.47,0.734
20132,2,20132,36,-4.63,-2.937,-1.343,32.353,15.872,69.532,0.44,1.491,0.954,-491.0,-3.840,-3.294,-2.193,29.859,16.632,67.860,0.248,2.79,-1.775,-491.0,11.467,90369.578,955.3,11.476,90357.593,955.637,20132,-1.343,955.637,-27440630.0,-25.655,5.341,0.0,0.0,0.0,4.41,0.833
20175,2,20175,43,-3.414,-2.473,-1.523,31.99,16.378,68.675,0.72,1.525,-1.13,-491.0,-2.433,-2.885,-2.21,28.617,17.962,66.793,0.219,1.432,-1.54,-491.0,11.472,90364.742,955.383,11.481,90357.593,955.237,20175,-1.523,955.237,-27502268.0,-9.301,2.387,0.0,0.0,0.0,4.47,0.944
20211,2,20211,36,-3.261,-1.949,-1.195,30.169,16.866,67.997,0.12,1.503,-1.213,-491.0,-2.914,0.279,0.656,28.646,18.474,66.486,0.298,0.972,-1.125,-491.0,11.477,90362.421,955.414,11.490,90366.648,954.631,20211,-1.195,954.631,-27551210.0,-16.840,3.21,0.0,0.0,0.0,4.34,0.741
20253,2,20253,42,-2.653,-2.475,-1.303,29.453,17.728,66.968,0.269,1.252,-1.139,-491.0,0.552,-5.498,-2.236,28.938,20.111,64.703,1.190,0.359,0.350,-491.0,11.484,90363.23,955.422,11.495,90369.968,955.44,20253,-1.303,955.44,-27603696.0,9.838,1.772,0.0,0.0,0.0,4.41,0.808
20289,2,20289,36,-2.144,-3.118,-1.689,29.327,18.965,66.121,0.515,0.730,0.865,-491.0,0.983,-4.192,-2.653,30.575,21.645,64.761,1.60,0.470,0.20,-491.0,11.487,90365.203,955.141,11.495,90374.187,955.154,20289,-1.689,955.154,-27657574.0,3.65,1.915,0.0,0.0,0.0,4.34,-1.47
20333,2,20333,44,-1.750,-3.482,-1.808,29.690,20.254,65.165,0.556,0.387,0.647,-491.0,-1.866,-5.118,-2.789,31.672,23.78,63.80,0.452,0.362,0.687,-491.0,11.494,90369.0,955.0,11.508,90376.609,954.934,20333,-1.808,954.934,-27734544.0,-5.3,2.176,0.0,0.0,0.0,4.47,-1.121
20369,2,20369,36,-1.290,-3.804,-1.909,30.304,21.508,64.218,0.650,0.144,0.533,-491.0,0.136,-4.493,-2.523,31.686,24.232,62.57,0.252,0.218,0.481,-491.0,11.497,90371.656,954.923,11.499,90370.867,954.851,20369,-1.909,954.851,-27801472.0,-2.312,2.74,0.0,0.0,0.0,4.41,-1.184
20443,2,20443,74,-1.358,-4.480,-2.305,31.335,22.586,63.531,0.477,0.253,0.347,-491.0,-3.251,-3.101,-1.325,33.805,23.867,63.51,0.566,-1.17,0.196,-491.0,11.501,90373.679,954.961,11.508,90376.757,954.823,20443,-2.305,954.823,-27957428.0,0.372,2.11,0.0,0.0,0.0,4.41,-1.429
20480,2,20480,37,-1.870,-3.507,-1.807,32.484,23.250,63.460,0.178,0.348,0.340,-491.0,-3.115,0.631,0.254,34.682,23.428,64.352,0.307,0.836,0.315,-491.0,11.501,90373.890,954.757,11.495,90371.23,954.24,20480,-1.807,954.24,-28033520.0,-21.603,3.841,0.0,0.0,0.0,4.41,-1.120
20521,2,20521,41,-2.403,-3.185,-1.541,33.668,23.534,63.382,0.112,0.399,0.412,-491.0,-3.646,-2.584,-1.325,36.495,23.63,64.367,0.393,0.723,0.382,-491.0,11.502,90375.39,954.553,11.499,90379.929,954.134,20521,-1.541,954.134,-28102180.0,2.691,1.925,0.0,0.0,0.0,4.34,0.956
20557,2,20557,36,-3.149,-2.549,-1.336,34.960,23.463,63.890,0.322,0.641,0.287,-491.0,-5.599,-1.938,-1.762,38.132,22.727,65.624,0.598,0.846,0.60,-491.0,11.501,90374.312,954.438,11.504,90372.984,954.356,20557,-1.336,954.356,-28153990.0,6.144,1.844,0.0,0.0,0.0,4.47,0.828
20601,2,20601,44,-4.35,-1.913,0.974,36.451,22.987,64.700,0.409,0.784,0.194,-491.0,-4.565,-1.313,0.714,39.140,21.850,66.106,0.180,0.496,0.15,-491.0,11.504,90376.335,954.256,11.513,90380.984,953.941,20601,0.974,953.941,-28204838.0,-9.414,2.393,0.0,0.0,0.0,4.34,0.604
20637,2,20637,36,-4.160,-1.854,-1.195,37.831,22.700,65.241,0.212,0.761,0.58,-491.0,-3.876,-2.806,-2.430,40.704,22.434,65.755,0.419,0.904,0.479,-491.0,11.506,90376.218,954.57,11.518,90376.148,953.832,20637,-1.195,953.832,-28243908.0,-3.50,2.100,0.0,0.0,0.0,4.34,0.741
20679,2,20679,42,-4.688,-2.424,-2.80,39.58,22.607,65.448,0.8,0.688,0.69,-491.0,-5.757,-3.481,-4.167,40.821,22.961,65.390,0.712,0.474,0.325,-491.0,11.510,90378.601,954.60,11.518,90382.945,954.38,20679,-2.80,954.38,-28312706.0,4.911,1.871,0.0,0.0,0.0,4.41,-1.289
20715,2,20715,36,-5.69,-2.588,-2.338,40.26,22.864,65.475,0.156,0.444,0.72,-491.0,-5.548,-3.402,-2.617,41.332,24.349,64.498,0.431,0.496,0.367,-491.0,11.514,90379.453,953.983,11.518,90384.148,953.749,20715,-2.338,953.749,-28392246.0,-8.27,2.317,0.0,0.0,0.0,4.28,-1.450
20759,2,20759,44,-4.803,-3.122,-2.835,40.628,23.349,65.65,0.407,0.214,0.41,-491.0,-4.271,-4.608,-4.246,41.142,25.153,63.577,0.653,0.306,0.214,-491.0,11.519,90382.375,953.859,11.531,90387.625,953.735,20759,-2.835,953.735,-28506076.0,0.313,2.9,0.0,0.0,0.0,4.34,-1.758
20795,2,20795,36,-5.112,-3.899,-3.340,41.17,24.77,64.662,0.390,0.130,0.49,-491.0,-6.108,-5.197,-3.241,41.84,25.489,64.89,0.264,0.78,0.26,-491.0,11.521,90382.976,953.779,11.522,90384.0,953.541,20795,-3.340,953.541,-28617246.0,-5.377,2.192,0.0,0.0,0.0,4.28,-2.71
20837,2,20837,42,-5.257,-3.827,-2.910,41.107,24.536,64.484,0.261,0.127,0.40,-491.0,-4.601,-2.447,0.276,41.157,24.729,64.864,0.224,0.387,0.25,-491.0,11.523,90385.234,953.782,11.527,90387.468,953.845,20837,-2.910,953.845,-28748514.0,7.222,1.821,0.0,0.0,0.0,4.34,-1.804
20873,2,20873,36,-4.858,-3.869,-2.503,40.988,24.697,64.329,0.189,0.318,0.90,-491.0,-3.761,-3.689,-2.136,40.222,23.764,64.615,0.351,0.480,0.76,-491.0,11.524,90383.882,953.536,11.522,90376.148,952.811,20873,-2.503,952.811,-28845962.0,-28.711,8.212,0.0,0.0,0.0,4.34,-1.552
20947,2,20947,74,-4.61,-3.554,-1.909,40.537,24.861,64.168,0.253,0.218,0.54,-491.0,-1.564,-1.830,0.354,39.82,25.168,63.694,0.751,0.3,0.359,-491.0,11.525,90383.484,953.486,11.522,90382.195,953.500,20947,-1.909,953.500,-29009248.0,9.309,1.781,0.0,0.0,0.0,4.28,-1.184
20983,2,20983,36,-3.612,-3.593,-1.724,40.5,25.77,63.870,0.317,0.83,0.149,-491.0,-2.24,-4.802,-3.320,38.482,26.235,62.87,0.972,0.366,0.258,-491.0,11.519,90384.210,953.442,11.504,90391.250,953.514,20983,-1.724,953.514,-29074652.0,0.398,1.988,0.0,0.0,0.0,4.34,-1.69
21026,2,21026,43,-3.442,-3.734,-1.607,39.719,25.393,63.390,0.390,0.136,0.226,-491.0,-5.261,-5.900,-2.660,39.652,27.68,61.692,0.100,-1.180,0.413,-491.0,11.518,90385.179,953.440,11.518,90388.828,953.528,21026,-1.607,953.528,-29146292.0,0.320,1.990,0.0,0.0,0.0,4.34,0.997
21063,2,21063,37,-3.971,-4.304,-2.70,39.558,25.875,62.788,0.398,0.347,0.284,-491.0,-7.243,-5.297,-2.588,40.353,27.141,61.853,0.185,0.667,0.315,-491.0,11.516,90384.757,953.456,11.513,90385.359,953.928,21063,-2.70,953.928,-29214336.0,10.808,1.755,0.0,0.0,0.0,4.34,-1.283
21105,2,21105,42,-4.378,-4.640,-2.143,39.438,26.442,62.303,0.227,0.372,0.289,-491.0,-5.800,-5.369,-2.502,39.622,26.600,62.189,0.503,0.357,0.101,-491.0,11.515,90386.812,953.641,11.518,90386.414,953.735,21105,-2.143,953.735,-29302822.0,-4.596,2.159,0.0,0.0,0.0,4.28,-1.329
21147,2,21147,42,-4.829,-4.681,-1.762,39.298,26.603,62.233,0.210,0.208,0.324,-491.0,-3.818,-2.38,2.257,38.380,25.971,63.344,0.668,0.813,0.535,-491.0,11.513,90387.226,953.812,11.513,90384.304,954.356,21147,-1.762,954.356,-29384856.0,14.774,1.692,0.0,0.0,0.0,4.34,-1.93
21183,2,21183,36,-4.868,-4.730,-1.277,39.14,26.790,62.303,0.217,0.34,0.367,-491.0,-2.218,-5.46,0.894,37.65,27.170,62.437,1.6,0.508,0.473,-491.0,11.516,90385.601,953.774,11.518,90383.93,953.321,21183,-1.277,953.321,-29439586.0,-28.728,8.239,0.0,0.0,0.0,4.34,0.792
21225,2,21225,42,-4.684,-4.628,-1.116,38.310,27.24,62.104,0.338,0.281,0.316,-491.0,-4.342,-5.391,-1.856,36.129,28.237,60.698,0.707,0.396,0.154,-491.0,11.516,90385.109,953.735,11.518,90386.414,953.335,21225,-1.116,953.335,-29489872.0,0.315,1.990,0.0,0.0,0.0,4.34,0.692
21261,2,21261,36,-4.299,-4.344,0.815,37.357,27.389,61.666,0.595,0.482,0.309,-491.0,-5.319,-3.876,-1.80,35.589,28.968,59.660,1.100,0.338,0.283,-491.0,11.517,90383.757,953.636,11.518,90378.570,953.432,21261,0.815,953.432,-29524652.0,2.695,1.925,0.0,0.0,0.0,4.34,0.505
21304,2,21304,43,-3.698,-4.245,0.829,36.126,28.149,60.903,0.841,0.724,0.220,-491.0,-2.792,-4.874,-2.574,33.469,30.400,58.374,0.725,1.568,0.343,-491.0,11.518,90383.515,953.616,11.522,90385.203,953.638,21304,0.829,953.638,-29560022.0,4.797,1.874,0.0,0.0,0.0,4.34,0.514
21340,2,21340,36,-2.835,-4.650,-1.968,34.866,29.58,59.657,0.735,0.742,0.75,-491.0,0.495,-4.63,-3.435,32.81,30.517,57.117,0.138,0.901,0.192,-491.0,11.519,90383.242,953.578,11.522,90382.945,954.163,21340,-1.968,954.163,-29610386.0,14.572,1.695,0.0,0.0,0.0,4.28,-1.220
21387,2,21387,47,-3.207,-4.456,-2.62,33.946,29.605,58.667,0.415,0.408,0.39,-491.0,-4.77,-4.77,-1.368,32.461,29.903,57.483,0.595,-1.163,0.295,-491.0,11.522,90383.242,953.663,11.531,90383.93,953.749,21387,-2.62,953.749,-29705120.0,-8.802,2.358,0.0,0.0,0.0,4.34,-1.279
21455,2,21455,68,-3.33,-4.131,-2.27,33.294,29.760,58.389,0.336,0.371,0.9,-491.0,-3.474,-3.768,-1.676,32.870,29.11,59.310,0.313,0.211,0.88,-491.0,11.523,90382.164,953.636,11.522,90380.984,953.197,21455,-2.27,953.197,-29844184.0,-8.111,2.321,0.0,0.0,0.0,4.34,-1.257
21496,2,21496,41,-2.680,-4.522,-2.292,32.703,29.853,58.164,0.170,0.396,0.87,-491.0,-3.553,-5.828,-2.408,32.636,29.435,58.535,0.269,0.463,0.109,-491.0,11.522,90383.62,953.636,11.513,90383.93,953.432,21496,-2.292,953.432,-29932740.0,5.716,1.853,0.0,0.0,0.0,4.34,-1.421
21533,2,21533,37,-2.671,-4.576,-2.373,32.537,29.789,58.132,0.76,0.78,0.45,-491.0,-2.749,-5.146,-2.976,32.636,30.78,58.213,0.259,0.20,0.131,-491.0,11.521,90383.273,953.696,11.518,90386.265,953.941,21533,-2.373,953.941,-30019058.0,13.775,1.707,0.0,0.0,0.0,4.28,-1.471
21576,2,21576,43,-3.582,-5.0,-2.282,32.744,29.631,58.281,0.30,0.73,0.32,-491.0,-4.55,-6.180,-2.983,33.118,29.728,57.863,0.94,0.142,0.127,-491.0,11.522,90383.304,953.633,11.527,90383.93,953.845,21576,-2.282,953.845,-30119156.0,-2.245,2.72,0.0,0.0,0.0,4.28,-1.415
21614,2,21614,38,-3.244,-5.65,-2.332,32.803,29.660,58.436,0.107,0.217,0.106,-491.0,-2.390,-4.400,-1.619,32.753,30.49,58.257,0.211,0.292,0.73,-491.0,11.521,90383.703,953.652,11.527,90385.54,953.845,21614,-2.332,953.845,-30206852.0,0.0,2.0,0.0,0.0,0.0,4.34,-1.446
21655,2,21655,41,-3.248,-5.495,-2.332,32.768,29.731,58.266,0.58,0.198,0.124,-491.0,-3.495,-5.922,-1.676,32.695,29.362,58.462,0.68,0.113,0.181,-491.0,11.523,90384.265,953.784,11.531,90383.843,953.859,21655,-2.332,953.859,-30302502.0,0.349,1.989,0.0,0.0,0.0,4.41,-1.446
21691,2,21691,36,-3.154,-5.405,-2.248,32.771,29.757,58.307,0.86,0.181,0.144,-491.0,-3.79,-5.376,-1.985,32.651,29.567,58.740,0.454,0.378,0.207,-491.0,11.526,90382.421,953.911,11.527,90373.882,954.66,21691,-2.248,954.66,-30384962.0,5.745,1.852,0.0,0.0,0.0,4.54,-1.394
21734,2,21734,43,-2.839,-5.148,-1.770,32.712,29.444,58.661,0.212,0.217,0.114,-491.0,-1.177,-3.862,0.585,32.344,28.515,59.982,0.373,0.158,0.19,-491.0,11.530,90381.976,953.933,11.541,90384.0,954.52,21734,-1.770,954.52,-30471356.0,0.320,2.9,0.0,0.0,0.0,4.41,-1.97
21770,2,21770,36,-2.766,-4.990,-1.500,32.508,29.181,59.70,0.198,0.106,0.112,-491.0,-3.689,-5.391,-1.633,32.95,28.412,59.909,0.24,0.413,0.119,-491.0,11.532,90380.312,953.958,11.536,90374.789,953.969,21770,-1.500,953.969,-30530222.0,-2.314,2.74,0.0,0.0,0.0,4.41,0.930
21812,2,21812,42,-3.135,-4.908,-1.777,32.455,28.637,59.599,0.347,0.112,0.114,-491.0,-4.235,-3.991,-3.4,32.490,27.331,60.903,0.952,0.326,0.82,-491.0,11.535,90379.859,953.961,11.541,90382.789,953.859,21812,-1.777,953.859,-30599050.0,-2.612,2.85,0.0,0.0,0.0,4.41,-1.102
21848,2,21848,36,-2.717,-4.279,-1.985,32.379,28.41,60.289,0.479,0.243,0.93,-491.0,-1.406,-2.778,-2.717,32.315,26.381,61.911,0.593,0.769,0.79,-491.0,11.540,90378.500,953.983,11.554,90377.54,953.969,21848,-1.985,953.969,-30666780.0,3.48,1.916,0.0,0.0,0.0,4.41,-1.231
21891,2,21891,43,-2.987,-4.159,-1.475,32.180,27.211,61.8,0.507,0.172,0.125,-491.0,-4.429,-4.773,0.562,31.657,25.416,62.335,0.593,0.21,0.363,-491.0,11.542,90379.585,953.964,11.541,90379.320,953.969,21891,-1.475,953.969,-30741198.0,0.0,2.0,0.0,0.0,0.0,4.41,0.915
21938,2,21938,47,-3.760,-4.61,-1.520,31.663,26.354,61.826,0.545,0.358,0.167,-491.0,-5.39,-3.373,0.808,29.757,24.232,64.74,0.560,1.87,0.191,-491.0,11.542,90378.648,953.925,11.541,90379.320,953.859,21938,-1.520,953.859,-30811606.0,-2.334,2.75,0.0,0.0,0.0,4.34,0.942
21979,2,21979,41,-3.543,-3.807,-1.622,30.982,25.401,62.458,0.543,0.631,0.148,-491.0,-2.605,-4.120,-2.143,28.690,23.648,63.66,0.15,0.955,0.25,-491.0,11.544,90380.15,954.49,11.545,90381.578,954.590,21979,-1.622,954.590,-30876028.0,17.826,1.651,0.0,0.0,0.0,4.34,-1.5
22015,2,22015,36,-3.6,-3.461,-1.381,29.973,24.712,62.788,0.390,0.740,0.136,-491.0,-1.550,-2.261,-1.798,27.448,23.881,62.554,0.186,0.868,0.21,-491.0,11.544,90378.414,954.176,11.541,90374.789,954.493,22015,-1.381,954.493,-30930088.0,-2.682,2.87,0.0,0.0,0.0,4.34,0.856
22059,2,22059,44,-2.679,-3.360,0.328,29.0,24.244,62.870,0.194,0.631,0.161,-491.0,0.229,-2.275,2.544,27.448,24.42,62.320,0.385,0.225,0.205,-491.0,11.541,90378.414,954.320,11.541,90377.54,954.687,22059,0.328,954.687,-30967702.0,4.387,1.883,0.0,0.0,0.0,4.41,0.203
22095,2,22095,36,-2.512,-3.447,0.696,28.35,24.42,62.800,0.34,0.753,0.70,-491.0,-3.596,-5.204,-1.274,26.834,24.408,61.984,0.206,0.630,0.90,-491.0,11.541,90377.265,954.447,11.541,90373.578,954.604,22095,0.696,954.604,-30986150.0,-2.297,2.74,0.0,0.0,0.0,4.34,0.431
22137,2,22137,42,-1.732,-3.504,0.806,27.249,24.226,62.239,0.47,0.690,0.10,-491.0,-1.141,-3.661,-1.360,25.825,25.153,61.268,0.150,0.773,0.107,-491.0,11.543,90376.601,954.617,11.550,90376.0,954.714,22137,0.806,954.714,-31017712.0,2.612,1.927,0.0,0.0,0.0,4.47,0.500
22173,2,22173,36,-1.280,-3.329,0.615,26.354,24.481,61.824,0.85,0.602,0.89,-491.0,0.344,-3.244,-1.188,24.218,24.919,60.990,0.173,0.514,0.417,-491.0,11.544,90374.757,954.538,11.550,90372.367,954.191,22173,0.615,954.191,-31043318.0,-14.526,2.772,0.0,0.0,0.0,4.34,0.381
22216,2,22216,43,-1.68,-3.569,0.587,25.796,24.691,61.368,0.18,0.397,0.69,-491.0,0.488,-3.460,-1.655,24.656,24.934,60.274,0.705,0.153,0.75,-491.0,11.547,90375.421,954.378,11.554,90378.109,953.694,22216,0.587,953.694,-31069180.0,-11.544,2.529,0.0,0.0,0.0,4.41,0.364
22252,2,22252,36,-1.464,-3.533,-1.98,25.349,24.592,61.292,0.323,0.247,0.74,-491.0,-1.751,-2.96,0.11,25.211,23.545,61.940,-1.141,0.525,0.229,-491.0,11.548,90374.703,954.301,11.545,90373.429,954.301,22252,-1.98,954.301,-31099516.0,16.854,1.664,0.0,0.0,0.0,4.34,0.681
22294,2,22294,42,-1.82,-3.19,0.892,25.270,24.285,61.531,0.306,0.127,0.171,-491.0,-1.686,-2.634,0.248,26.439,22.873,63.183,0.293,0.29,0.394,-491.0,11.551,90375.789,954.281,11.554,90379.7,954.507,22294,0.892,954.507,-31141330.0,4.911,1.871,0.0,0.0,0.0,4.34,0.553
22336,2,22336,42,-1.114,-2.953,0.937,25.317,24.109,61.715,0.262,0.57,0.354,-491.0,-1.299,-3.330,-1.583,26.59,24.276,62.189,0.69,0.423,0.807,-491.0,11.552,90375.85,954.177,11.554,90372.523,954.191,22336,0.937,954.191,-31179766.0,-7.539,2.292,0.0,0.0,0.0,4.47,0.581
22372,2,22372,36,-1.572,-2.486,0.538,25.936,24.25,62.113,0.403,0.287,0.259,-491.0,-2.634,0.911,0.806,27.316,24.495,62.978,0.535,-1.211,0.58,-491.0,11.552,90376.171,954.240,11.550,90377.804,954.507,22372,0.538,954.507,-31206328.0,8.795,1.791,0.0,0.0,0.0,4.41,0.333
22414,2,22414,42,-2.119,-2.476,0.276,26.705,23.633,62.934,0.430,0.240,0.375,-491.0,-3.223,-3.409,0.348,28.500,22.975,64.381,0.841,0.82,0.503,-491.0,11.552,90374.125,954.546,11.554,90367.843,955.224,22414,0.276,955.224,-31223450.0,17.73,1.661,0.0,0.0,0.0,4.41,0.171
22483,2,22483,69,-1.804,-2.862,0.414,27.129,23.408,63.335,0.97,0.89,0.497,-491.0,0.179,-4.27,0.700,27.331,22.420,63.943,0.528,1.122,0.839,-491.0,11.554,90375.750,954.436,11.559,90381.578,953.749,22483,0.414,953.749,-31247318.0,-21.384,3.789,0.0,0.0,0.0,4.41,0.257
22524,2,22524,41,-1.475,-3.125,0.653,27.345,23.604,63.352,0.296,0.99,0.553,-491.0,0.43,-3.948,-1.439,27.521,23.852,63.270,0.704,0.916,0.675,-491.0,11.551,90376.296,954.290,11.536,90381.734,953.777,22524,0.653,953.777,-31269212.0,0.686,1.979,0.0,0.0,0.0,4.34,0.405
22560,2,22560,36,-2.18,-2.666,0.135,28.114,23.311,63.966,0.333,0.393,0.341,-491.0,-4.12,-1.33,2.357,29.903,22.814,65.258,0.115,-1.41,0.254,-491.0,11.547,90377.421,954.309,11.536,90378.109,954.287,22560,0.135,954.287,-31278538.0,14.156,1.701,0.0,0.0,0.0,4.47,0.83
22603,2,22603,43,-2.103,-3.2,0.347,28.620,22.931,64.399,0.174,0.4,0.382,-491.0,-3.58,-2.591,-1.605,29.845,22.595,65.141,0.261,0.774,0.147,-491.0,11.545,90376.593,954.182,11.541,90373.734,953.872,22603,0.347,953.872,-31283102.0,-9.633,2.406,0.0,0.0,0.0,4.47,0.215
22641,2,22641,38,-1.651,-2.964,0.799,28.640,22.885,64.314,0.45,0.124,0.361,-491.0,0.961,-3.223,-2.609,28.602,22.741,63.957,0.196,0.684,0.396,-491.0,11.543,90378.648,953.812,11.545,90378.109,953.377,22641,0.799,953.377,-31304894.0,-13.34,2.642,0.0,0.0,0.0,4.34,0.495
22688,2,22688,47,-2.1,-2.366,0.701,28.938,22.984,64.466,0.195,0.145,0.162,-491.0,-1.931,-1.33,0.212,28.821,22.917,64.703,0.219,0.229,0.151,-491.0,11.541,90377.273,953.881,11.545,90374.632,954.94,22688,0.701,954.94,-31340180.0,15.256,1.686,0.0,0.0,0.0,4.41,0.435
22724,2,22724,36,-2.499,-1.465,0.176,29.102,22.800,64.788,0.50,0.37,0.71,-491.0,-2.533,0.552,1.187,28.339,22.931,64.878,0.525,0.0,0.497,-491.0,11.544,90375.359,953.865,11.554,90372.218,953.694,22724,0.176,953.694,-31355992.0,-11.108,2.499,0.0,0.0,0.0,4.41,0.109
22768,2,22768,44,-2.120,-1.834,0.801,28.959,23.42,64.396,0.446,0.255,0.48,-491.0,-2.117,-2.878,0.765,29.187,24.28,63.300,1.861,0.45,0.350,-491.0,11.548,90376.898,953.848,11.554,90385.804,954.204,22768,0.801,954.204,-31377498.0,11.582,1.742,0.0,0.0,0.0,4.28,0.496
22804,2,22804,36,-1.757,-2.587,-1.230,28.678,23.759,63.595,0.435,0.264,0.40,-491.0,-1.241,-6.352,-3.751,28.441,26.176,61.137,0.206,0.820,0.105,-491.0,11.552,90379.78,953.771,11.559,90384.593,953.487,22804,-1.230,953.487,-31414062.0,-19.902,3.481,0.0,0.0,0.0,4.34,0.762
22846,2,22846,42,-1.790,-1.961,0.337,28.453,24.215,63.104,0.468,0.53,0.74,-491.0,-1.127,0.93,1.855,27.477,25.21,61.502,0.30,0.368,0.178,-491.0,11.555,90379.914,953.956,11.564,90382.328,954.301,22846,0.337,954.301,-31446982.0,19.371,1.632,0.0,0.0,0.0,4.28,0.209
22882,2,22882,36,-1.830,-2.625,0.716,28.389,24.796,62.414,0.572,0.80,0.40,-491.0,-2.132,-4.357,-2.107,28.500,25.825,61.254,0.300,0.97,0.16,-491.0,11.561,90381.882,953.815,11.573,90384.445,953.391,22882,0.716,953.391,-31465946.0,-25.280,5.139,0.0,0.0,0.0,4.28,0.444
22925,2,22925,43,-1.261,-3.692,-1.817,28.339,25.194,61.824,0.188,0.174,0.27,-491.0,0.308,-4.780,-4.318,28.91,24.919,61.926,-1.393,0.471,0.430,-491.0,11.564,90382.93,953.837,11.573,90373.273,953.804,22925,-1.817,953.804,-31520422.0,9.606,1.776,0.0,0.0,0.0,4.34,-1.127
22993,2,22993,68,-1.384,-3.599,-1.847,28.380,24.861,62.154,0.228,0.246,0.181,-491.0,-2.727,-2.411,0.915,29.391,22.361,64.951,0.225,0.406,0.418,-491.0,11.567,90379.882,953.892,11.568,90374.789,954.479,22993,-1.847,954.479,-31645036.0,9.928,1.770,0.0,0.0,0.0,4.28,-1.145
23035,2,23035,42,-1.854,-2.707,-1.91,28.401,24.71,62.949,0.198,0.20,0.242,-491.0,-3.596,-1.895,0.31,28.544,22.230,65.112,0.355,0.309,0.199,-491.0,11.564,90376.562,954.113,11.541,90367.992,954.590,23035,-1.91,954.590,-31706748.0,2.640,1.926,0.0,0.0,0.0,4.28,0.676
23071,2,23071,36,-2.64,-3.115,-1.429,28.535,23.481,63.668,0.148,0.142,0.259,-491.0,-2.175,-2.132,0.160,28.149,22.69,65.97,0.222,0.242,0.263,-491.0,11.559,90376.625,954.151,11.541,90382.632,954.493,23071,-1.429,954.493,-31752124.0,-2.682,2.87,0.0,0.0,0.0,4.28,0.886
23113,2,23113,42,-2.101,-2.829,-1.526,28.339,22.785,64.352,0.158,0.156,0.363,-491.0,-2.318,-2.928,-2.588,27.521,22.347,64.674,0.250,0.28,0.508,-491.0,11.553,90374.242,954.350,11.545,90372.523,954.383,23113,-1.526,954.383,-31814198.0,-2.625,2.85,0.0,0.0,0.0,4.34,0.946
23149,2,23149,36,-2.465,-2.269,0.752,28.202,22.274,64.896,0.94,0.42,0.312,-491.0,-1.507,-1.981,0.449,27.404,22.361,64.644,0.129,0.97,0.172,-491.0,11.547,90373.851,954.408,11.541,90371.312,954.94,23149,0.752,954.94,-31855206.0,-8.29,2.317,0.0,0.0,0.0,4.41,0.466
23192,2,23192,43,-2.170,-2.361,0.724,27.679,22.230,64.788,0.201,0.131,0.254,-491.0,-1.256,-2.871,0.779,26.775,22.142,64.410,0.306,0.851,0.129,-491.0,11.542,90374.62,954.350,11.545,90375.843,954.191,23192,0.724,954.191,-31886964.0,2.244,1.936,0.0,0.0,0.0,4.34,0.449
23228,2,23228,36,-1.572,-2.248,0.689,26.992,22.215,64.460,0.241,0.299,0.324,-491.0,0.602,-1.328,0.211,25.109,22.157,63.475,0.559,0.532,0.550,-491.0,11.545,90374.484,954.334,11.554,90370.109,954.507,23228,0.689,954.507,-31912416.0,8.795,1.791,0.0,0.0,0.0,4.28,0.427
23270,2,23270,42,-1.85,-2.330,0.892,26.220,22.402,63.911,0.315,0.329,0.286,-491.0,0.258,-2.541,0.858,24.291,23.4,62.350,0.590,0.390,0.71,-491.0,11.549,90373.93,954.193,11.559,90375.687,953.791,23270,0.892,953.791,-31945636.0,-17.60,3.48,0.0,0.0,0.0,4.34,0.553
23306,2,23306,36,0.631,-2.298,0.587,25.507,22.572,63.314,0.286,0.294,0.191,-491.0,0.50,-2.770,-1.59,23.954,23.194,61.692,0.103,0.204,0.32,-491.0,11.550,90374.632,954.301,11.550,90380.218,954.921,23306,0.587,954.921,-31972276.0,31.395,1.514,0.0,0.0,0.0,4.28,0.364
23350,2,23350,44,0.692,-2.387,0.521,25.97,22.785,62.934,0.235,0.128,0.112,-491.0,-1.808,-2.426,0.119,25.358,23.428,62.744,0.380,0.929,0.223,-491.0,11.551,90376.656,954.301,11.545,90381.429,954.94,23350,0.521,954.94,-31996656.0,-18.791,3.292,0.0,0.0,0.0,4.34,0.323
23386,2,23386,36,0.778,-2.498,0.552,24.998,23.7,62.817,0.99,0.77,0.58,-491.0,-1.686,-3.424,0.937,26.278,23.253,63.826,0.373,0.178,0.720,-491.0,11.552,90376.625,954.240,11.550,90375.687,953.887,23386,0.552,953.887,-32015982.0,-5.745,2.208,0.0,0.0,0.0,4.34,0.342
23428,2,23428,42,0.859,-2.935,0.759,25.352,23.54,62.946,0.25,0.107,0.152,-491.0,-1.12,-3.517,0.822,26.878,22.391,64.118,0.68,0.386,0.76,-491.0,11.552,90377.265,954.221,11.554,90373.273,954.411,23428,0.759,954.411,-32043534.0,12.462,1.727,0.0,0.0,0.0,4.34,0.470
