millis(),Current_state,Calculated_flight_time,Time_since_last_log,IMU_accel_X,IMU_accel_Y,IMU_accel_Z,IMU_mag_X,IMU_mag_Y,IMU_mag_Z,IMU_gyro_X,IMU_gyro_Y,IMU_gyro_Z,IMU_temp,BARO_temp,BARO_press,BARO_alt,Velocity_inte,Velocity_diff,Velocity_est,lastInte.x,lastInte.y,lastDiff.x,lastDiff.y,Est_apogee,Z_accel_times_burnoutMass
1277,5,1277,1277,0.193,0.7,0.463,35.399,1.446,52.601,0.25,0.26,0.11,-651.0,10.342,90702.515,924.382,0.0,0.0,0.0,1270.0,0.341,1270.0,924.55,-2147483648.2147483647,0.301
1367,5,1367,90,0.122,0.35,0.406,35.457,2.31,52.236,0.17,0.21,0.19,-651.0,10.328,90704.140,924.61,-37.944,0.2,1.800,1361.0,0.492,1361.0,924.305,-84.841,0.263
1452,5,1452,85,0.244,0.71,0.499,35.384,1.446,52.265,0.15,0.13,0.19,-651.0,10.328,90697.109,923.966,-77.353,0.3,2.472,1446.0,0.434,1446.0,923.984,-71.279,0.324
1532,5,1532,80,0.610,0.337,0.463,35.662,1.900,52.104,0.15,0.7,0.23,-619.0,10.319,90706.31,924.97,-106.117,0.10,6.343,1526.0,0.284,1526.0,923.171,-29.921,0.301
1612,5,1612,80,0.114,0.129,0.341,34.799,1.973,51.870,0.27,0.29,0.10,-651.0,10.338,90706.226,923.966,-132.296,0.8,1.582,1606.0,0.370,1606.0,923.889,-90.930,0.221
1698,5,1698,86,0.531,0.21,0.592,35.150,1.826,51.973,0.1,0.59,0.19,-619.0,10.333,90706.875,924.97,-169.700,0.8,4.549,1692.0,0.499,1692.0,923.171,-44.994,0.384
1778,5,1778,80,0.78,0.373,0.815,35.92,1.943,51.826,0.21,0.20,0.3,-619.0,10.338,90704.789,923.889,-188.413,0.0,1.982,1772.0,0.31,1772.0,923.189,-80.318,0.529
1868,5,1868,90,0.86,0.14,0.449,35.223,1.636,51.973,0.12,0.0,0.15,-619.0,10.328,90712.671,923.872,-202.360,0.4,1.715,1862.0,0.341,1862.0,923.587,-87.679,0.291
1947,5,1947,79,0.107,0.229,0.442,35.632,2.16,52.206,0.3,0.20,0.25,-619.0,10.338,90712.671,923.984,-232.465,0.5,1.706,1941.0,0.420,1941.0,924.2,-87.489,0.287
2027,5,2027,80,0.28,0.78,0.485,35.384,1.856,52.294,0.21,0.4,0.18,-619.0,10.338,90708.312,923.474,-261.516,0.8,4.542,2021.0,0.305,2021.0,923.284,-45.157,0.315
2107,5,2107,80,0.193,0.157,0.334,34.624,1.651,52.353,0.14,0.0,0.20,-619.0,10.347,90710.195,924.2,-288.845,0.1,1.913,2101.0,0.377,2101.0,923.379,-83.295,0.217
2187,5,2187,80,0.983,0.107,0.269,35.749,1.344,52.104,0.76,0.27,0.14,-619.0,10.347,90706.875,923.889,-321.54,0.6,1.654,2181.0,0.427,2181.0,923.907,-89.41,0.175
2267,5,2267,80,0.308,0.64,0.399,34.828,1.607,52.119,0.74,0.22,0.55,-619.0,10.338,90704.593,923.681,-351.253,0.0,2.0,2261.0,0.327,2261.0,923.907,-80.337,0.259
2348,5,2348,81,0.222,0.789,0.413,34.931,1.739,52.60,0.94,0.16,0.10,-619.0,10.338,90717.39,923.889,-376.284,0.1,1.913,2341.0,0.298,2341.0,924.2,-82.798,0.268
2437,5,2437,89,0.107,0.394,0.241,35.121,1.461,51.929,0.33,0.39,0.43,-619.0,10.328,90709.351,923.552,-401.537,0.4,2.710,2431.0,0.262,2431.0,923.587,-67.271,0.156
2522,5,2522,85,-2.333,1.98,0.205,35.647,1.432,52.265,0.53,0.104,0.43,-619.0,10.333,90710.585,923.456,-442.776,0.0,2.0,2516.0,0.707,2516.0,923.587,-80.960,0.133
2602,5,2602,80,0.746,0.93,0.505,35.589,1.183,51.826,0.122,0.116,0.21,-619.0,10.352,90710.390,924.2,-497.383,0.0,2.0,2596.0,0.657,2596.0,923.587,-80.553,0.328
2682,5,2682,80,0.272,0.430,0.492,35.355,1.198,52.353,0.105,0.28,0.1,-619.0,10.342,90710.390,923.587,-528.156,0.6,1.654,2676.0,0.111,2676.0,924.115,-88.541,0.319
2768,5,2768,86,0.366,0.552,0.384,35.442,1.23,52.177,0.16,0.63,0.27,-619.0,10.338,90703.554,924.287,-567.103,0.2,2.262,2762.0,0.793,2762.0,923.907,-75.31,0.249
2848,5,2848,80,0.373,0.71,0.219,35.33,1.23,52.133,0.1,0.29,0.97,-619.0,10.342,90706.875,924.115,-618.838,0.1,2.126,2842.0,0.499,2842.0,923.795,-78.63,0.142
2938,5,2938,90,1.636,-2.31,-1.102,35.311,1.286,52.236,0.40,0.44,0.17,-619.0,10.328,90706.875,924.174,-658.627,0.3,1.757,2932.0,0.384,2932.0,924.115,-85.685,0.715
3017,5,3017,79,1.794,0.954,0.628,35.223,0.803,52.31,0.97,0.2,0.21,-619.0,10.338,90704.593,923.984,-688.449,0.6,3.118,3011.0,0.370,3011.0,923.587,-61.517,0.408
3097,5,3097,80,0.129,0.265,0.413,35.545,0.760,51.987,0.55,0.81,0.32,-619.0,10.352,90704.398,923.379,-716.351,0.8,1.609,3091.0,0.327,3091.0,924.227,-89.923,0.268
3177,5,3177,80,0.789,0.344,0.420,35.267,0.920,52.163,0.71,0.2,0.34,-619.0,10.347,90702.320,924.97,-752.6,0.5,2.706,3171.0,0.564,3171.0,923.813,-67.388,0.273
3258,5,3258,81,0.488,0.129,0.320,35.530,1.432,52.396,0.21,0.24,0.31,-619.0,10.347,90713.515,923.699,-780.548,0.1,2.128,3252.0,0.140,3252.0,923.699,-77.904,0.207
3338,5,3338,80,0.653,0.387,0.485,35.282,1.271,52.426,0.38,0.5,0.8,-619.0,10.347,90702.320,924.512,-805.579,0.5,1.697,3332.0,0.485,3332.0,924.133,-87.929,0.315
3419,5,3419,81,0.323,0.114,0.233,35.121,0.701,52.382,0.2,0.4,0.34,-619.0,10.342,90709.156,923.795,-839.798,0.2,1.828,3412.0,0.370,3412.0,924.340,-84.766,0.151
3524,5,3524,105,0.918,0.193,0.513,35.486,0.964,52.75,0.14,0.46,0.19,-619.0,10.319,90714.109,924.269,-883.998,0.7,6.878,3518.0,0.463,3518.0,923.510,-26.621,0.333
3604,5,3604,80,0.990,0.172,0.521,34.814,1.476,52.75,0.30,0.31,0.7,-619.0,10.328,90708.312,923.569,-921.89,0.0,1.944,3598.0,0.463,3598.0,923.569,-81.994,0.338
3684,5,3684,80,0.567,0.122,0.348,35.296,1.256,51.724,0.18,0.33,0.13,-619.0,10.333,90710.390,924.192,-946.694,0.4,2.661,3678.0,0.176,3678.0,923.171,-67.931,0.226
3764,5,3764,80,0.638,0.21,0.413,35.33,1.549,51.636,0.25,0.26,0.17,-619.0,10.338,90711.437,924.192,-972.873,0.7,1.615,3758.0,0.477,3758.0,923.795,-89.774,0.268
3849,5,3849,85,0.380,0.114,0.384,35.121,1.330,52.192,0.15,0.12,0.17,-619.0,10.338,90709.156,924.2,-1004.45,0.1,1.899,3843.0,0.255,3843.0,923.907,-83.9,0.249
3929,5,3929,80,0.323,0.14,0.485,35.4,1.330,51.826,0.22,0.28,0.15,-619.0,10.333,90709.156,923.889,-1029.650,0.1,1.898,3923.0,0.384,3923.0,924.20,-82.404,0.315
4020,5,4020,91,-1.177,-1.256,0.542,34.828,1.783,52.163,0.98,0.112,0.3,-619.0,10.333,90708.312,924.269,-1072.494,0.1,1.913,4014.0,0.556,4014.0,924.115,-81.888,0.352
4106,5,4106,86,0.445,1.148,0.564,35.165,1.271,51.826,0.102,0.89,0.54,-619.0,10.328,90713.914,923.777,-1115.454,0.1,1.913,4100.0,0.442,4100.0,924.209,-82.191,0.366
4186,5,4186,80,0.287,1.241,-1.375,35.311,1.651,51.783,0.225,0.2,0.21,-619.0,10.338,90705.835,923.569,-1150.822,0.7,3.649,4180.0,0.442,4180.0,923.587,-53.908,0.893
4266,5,4266,80,0.739,0.165,0.440,35.413,1.549,51.943,0.28,0.58,0.29,-619.0,10.342,90712.671,923.681,-1221.220,0.1,1.913,4260.0,-1.317,4260.0,923.681,-82.687,0.286
4345,5,4345,79,0.595,0.208,0.635,34.975,1.476,52.31,0.3,0.43,0.33,-619.0,10.324,90704.593,924.80,-1298.962,0.0,2.0,4339.0,0.650,4339.0,923.681,-79.611,0.412
4426,5,4426,81,0.14,0.136,0.729,34.975,1.797,51.987,0.50,0.40,0.18,-619.0,10.333,90705.835,923.681,-1355.578,0.9,1.576,4419.0,0.765,4419.0,924.417,-90.537,0.473
4505,5,4505,79,0.387,0.279,0.305,35.325,1.461,51.826,0.70,0.25,0.12,-619.0,10.338,90706.875,924.512,-1397.838,0.7,3.649,4499.0,0.291,4499.0,923.795,-54.520,0.198
4595,5,4595,90,-1.751,1.902,0.765,35.472,1.505,51.987,0.116,0.155,0.3,-619.0,10.338,90703.554,924.174,-1441.826,0.4,2.659,4589.0,0.686,4589.0,923.397,-68.53,0.496
4675,5,4675,80,0.832,-1.543,1.15,34.960,1.563,52.75,0.153,0.82,0.10,-619.0,10.328,90709.351,923.889,-1492.125,0.2,1.840,4669.0,0.571,4669.0,923.587,-83.549,0.659
4755,5,4755,80,0.703,1.335,0.779,35.325,1.446,51.476,0.11,0.130,0.15,-619.0,10.338,90706.875,924.209,-1537.543,0.4,2.470,4749.0,0.564,4749.0,923.267,-70.967,0.506
4834,5,4834,79,-1.33,-1.507,0.449,35.165,1.651,51.856,0.49,0.98,0.19,-619.0,10.352,90702.320,924.530,-1576.155,0.10,1.541,4828.0,0.413,4828.0,924.115,-92.449,0.291
4914,5,4914,80,-1.557,0.509,0.535,35.282,1.256,51.856,0.26,0.104,0.14,-619.0,10.347,90708.960,923.889,-1618.702,0.5,1.706,4908.0,0.650,4908.0,924.530,-87.254,0.347
4994,5,4994,80,-1.148,0.746,0.434,34.375,1.446,51.841,0.30,0.66,0.7,-619.0,10.342,90706.875,923.795,-1664.120,0.9,4.778,4988.0,0.485,4988.0,923.795,-41.682,0.282
5080,5,5080,86,0.947,0.401,0.370,34.522,1.549,51.710,0.8,0.47,0.17,-619.0,10.342,90702.515,924.115,-1700.288,0.1,1.884,5074.0,0.355,5074.0,923.925,-83.231,0.240
5170,5,5170,90,0.344,0.200,0.248,34.478,0.920,51.622,0.53,0.74,0.22,-619.0,10.328,90703.750,924.382,-1729.94,0.6,3.203,5164.0,0.284,5164.0,923.379,-59.831,0.161
5250,5,5250,80,0.559,0.186,0.463,34.960,1.695,51.943,0.7,0.58,0.18,-619.0,10.338,90708.117,923.587,-1760.442,0.8,1.609,5244.0,0.499,5244.0,924.20,-89.831,0.301
5330,5,5330,80,0.265,0.71,0.341,35.77,1.315,51.870,0.43,0.21,0.0,-619.0,10.347,90711.437,923.474,-1792.77,0.2,2.260,5324.0,0.291,5324.0,923.813,-75.175,0.221
5415,5,5415,85,0.186,0.208,-1.109,35.77,1.812,50.935,0.6,0.58,0.16,-619.0,10.338,90706.875,924.400,-1711.588,0.2,1.840,5409.0,2.185,5409.0,924.2,-83.547,0.720
5496,5,5496,81,0.236,0.258,0.463,34.434,1.549,51.900,0.29,0.34,0.7,-619.0,10.352,90705.640,924.209,-1641.2,0.0,2.83,5489.0,0.420,5489.0,923.925,-78.639,0.301
5575,5,5575,79,0.35,0.57,0.320,34.697,1.593,51.520,0.18,0.41,0.19,-619.0,10.338,90710.390,924.97,-1672.637,0.1,1.913,5569.0,0.370,5569.0,924.20,-82.469,0.207
5661,5,5661,86,0.832,0.114,0.355,34.302,1.710,51.578,0.13,0.40,0.15,-619.0,10.342,90710.195,923.889,-1703.558,0.4,2.708,5655.0,0.348,5655.0,923.605,-67.357,0.231
5767,5,5767,106,0.897,0.373,0.327,34.302,1.432,51.578,0.32,0.54,0.14,-619.0,10.333,90704.984,924.382,-1747.757,0.2,1.815,5761.0,0.485,5761.0,923.830,-85.96,0.212
5847,5,5847,80,0.646,0.43,0.406,35.77,1.286,51.461,0.8,0.37,0.18,-619.0,10.328,90706.31,923.777,-1785.135,0.0,2.37,5841.0,0.449,5841.0,923.795,-79.239,0.263
5927,5,5927,80,0.739,0.57,0.499,34.902,1.753,51.768,0.13,0.28,0.10,-619.0,10.338,90707.914,924.305,-1821.77,0.0,1.982,5921.0,0.449,5921.0,923.813,-81.139,0.324
6007,5,6007,80,0.531,0.7,0.427,35.165,1.549,51.651,0.24,0.31,0.12,-619.0,10.342,90704.593,924.305,-1852.999,0.1,1.899,6001.0,0.348,6001.0,923.925,-81.980,0.277
6087,5,6087,80,0.739,0.14,0.377,34.799,1.271,52.367,0.11,0.28,0.16,-619.0,10.342,90704.593,924.625,-1885.209,0.4,1.715,6081.0,0.456,6081.0,924.322,-87.137,0.245
6166,5,6166,79,0.294,0.172,0.377,34.492,1.578,52.148,0.17,0.1,0.18,-619.0,10.352,90707.718,924.115,-1920.985,0.0,2.82,6160.0,0.449,6160.0,924.246,-78.244,0.245
6257,5,6257,91,-3.86,-1.837,0.786,34.843,1.870,52.163,0.19,0.4,0.10,-619.0,10.338,90706.875,924.417,-1925.615,0.1,1.913,6251.0,0.347,6251.0,924.340,-82.265,0.510
6337,5,6337,80,0.64,0.287,0.470,34.653,2.75,51.929,0.6,0.9,0.28,-619.0,10.342,90706.875,924.115,-1923.367,0.0,2.18,6331.0,0.291,6331.0,924.322,-79.819,0.305
6423,5,6423,86,0.244,0.186,0.456,34.595,1.856,52.46,0.31,0.17,0.21,-619.0,10.347,90703.359,924.512,-1953.54,0.7,3.531,6417.0,0.399,6417.0,923.717,-55.758,0.296
6504,5,6504,81,0.208,0.78,0.341,34.25,1.183,52.163,0.12,0.24,0.17,-619.0,10.338,90705.835,924.2,-1984.689,0.8,1.582,6497.0,0.391,6497.0,924.435,-90.272,0.221
6583,5,6583,79,0.150,0.157,0.456,34.726,1.125,52.426,0.29,0.23,0.14,-619.0,10.342,90707.914,924.322,-2014.888,0.6,3.40,6577.0,0.363,6577.0,923.925,-61.673,0.296
6663,5,6663,80,0.35,0.64,0.355,33.966,1.490,52.60,0.15,0.26,0.10,-619.0,10.352,90704.593,924.625,-2042.216,0.3,1.768,6657.0,0.320,6657.0,924.227,-85.91,0.231
6747,5,6747,84,0.251,0.136,0.442,34.931,1.622,52.426,0.15,0.44,0.23,-619.0,10.352,90705.640,924.2,-2073.624,0.2,2.261,6741.0,0.427,6741.0,924.20,-74.848,0.287
6837,5,6837,90,0.423,0.35,0.327,34.346,1.841,52.60,0.25,0.39,0.16,-619.0,10.342,90709.156,924.720,-2115.998,0.0,2.0,6831.0,0.513,6831.0,924.20,-80.19,0.212
6917,5,6917,80,0.265,0.50,0.442,34.712,1.315,52.703,0.14,0.35,0.14,-619.0,10.338,90700.234,923.474,-2153.950,0.2,1.828,6911.0,0.434,6911.0,924.227,-84.262,0.287
7003,5,7003,86,0.524,0.78,0.111,35.822,1.330,51.753,0.41,0.52,0.10,-619.0,10.342,90695.281,924.625,-2223.146,0.12,-25.511,6997.0,-1.174,6997.0,923.189,30.889,0.72
7083,5,7083,80,0.610,0.14,0.399,35.442,1.534,52.60,0.11,0.38,0.15,-619.0,10.347,90703.359,924.2,-2286.941,0.14,1.464,7077.0,0.420,7077.0,924.340,-94.52,0.259
7163,5,7163,80,0.380,0.150,0.406,35.457,1.739,51.987,0.24,0.23,0.11,-619.0,10.352,90706.679,924.945,-2323.170,0.2,2.261,7157.0,0.485,7157.0,924.133,-75.154,0.263
7242,5,7242,79,0.323,0.50,0.477,35.501,1.359,51.520,0.19,0.29,0.17,-619.0,10.347,90707.914,924.435,-2356.678,0.9,4.549,7236.0,0.363,7236.0,923.415,-44.350,0.310
7322,5,7322,80,0.229,0.122,0.363,35.662,1.651,51.973,0.20,0.30,0.12,-587.0,10.342,90704.398,924.435,-2388.601,0.9,1.576,7316.0,0.434,7316.0,924.151,-90.714,0.235
7412,5,7412,90,0.222,0.43,0.399,35.413,1.388,52.499,0.29,0.40,0.15,-619.0,10.338,90700.39,924.720,-2427.97,0.8,4.785,7406.0,0.420,7406.0,923.415,-43.87,0.259
7493,5,7493,81,0.480,0.93,0.470,35.369,1.403,51.841,0.14,0.48,0.14,-619.0,10.342,90698.796,924.417,-2464.361,0.12,1.495,7487.0,0.499,7487.0,924.435,-92.238,0.305
7574,5,7574,81,0.602,0.14,0.434,34.741,1.870,51.885,0.25,0.26,0.14,-619.0,10.342,90705.640,924.625,-2505.759,0.1,2.127,7567.0,0.535,7567.0,924.322,-76.698,0.282
7653,5,7653,79,0.71,0.93,0.312,35.48,1.622,52.543,0.20,0.17,0.11,-619.0,10.342,90706.875,924.512,-2541.988,0.1,2.105,7647.0,0.370,7647.0,924.227,-77.555,0.203
7737,5,7737,84,0.150,0.64,0.470,35.4,1.242,52.265,0.19,0.34,0.14,-619.0,10.333,90705.835,924.209,-2572.190,0.6,1.662,7731.0,0.348,7731.0,924.737,-88.0,0.305
7817,5,7817,80,0.330,0.100,0.456,34.551,1.432,52.265,0.23,0.37,0.15,-619.0,10.347,90703.554,924.625,-2603.538,0.1,2.105,7811.0,0.434,7811.0,924.642,-77.676,0.296
7897,5,7897,80,0.394,0.43,0.442,35.106,1.125,52.236,0.19,0.40,0.11,-619.0,10.347,90702.320,924.512,-2639.193,0.2,2.261,7891.0,0.456,7891.0,924.435,-74.126,0.287
8004,5,8004,107,0.200,0.21,0.413,34.887,1.651,51.900,0.21,0.45,0.14,-619.0,10.328,90707.265,924.382,-2687.650,0.1,1.828,7998.0,0.449,7998.0,924.642,-83.905,0.268
8089,5,8089,85,0.466,0.21,0.355,35.33,1.213,52.46,0.21,0.40,0.11,-619.0,10.324,90703.750,923.984,-2722.788,0.0,2.36,8083.0,0.377,8083.0,924.607,-79.867,0.231
8169,5,8169,80,0.466,0.21,0.391,35.647,1.783,51.651,0.20,0.32,0.19,-619.0,10.342,90705.835,924.512,-2753.848,0.6,2.969,8163.0,0.399,8163.0,924.115,-63.38,0.254
8249,5,8249,80,0.358,0.78,0.506,35.486,1.578,51.680,0.14,0.29,0.21,-619.0,10.338,90705.835,924.400,-2785.771,0.3,1.767,8243.0,0.399,8243.0,924.417,-85.339,0.329
8335,5,8335,86,0.394,0.78,0.384,36.27,1.330,51.783,0.20,0.32,0.13,-619.0,10.333,90706.875,924.512,-2817.0,0.1,2.105,8329.0,0.327,8329.0,924.322,-77.173,0.249
8415,5,8415,80,0.495,0.14,0.463,36.27,1.446,51.461,0.24,0.29,0.12,-619.0,10.342,90710.390,924.530,-2846.626,0.4,1.757,8409.0,0.413,8409.0,924.642,-85.666,0.301
8506,5,8506,91,0.509,0.14,0.521,35.4,1.666,51.636,0.20,0.35,0.17,-619.0,10.333,90706.875,924.607,-2887.183,0.11,-25.815,8500.0,0.477,8500.0,923.605,32.13,0.338
8586,5,8586,80,0.344,0.143,0.341,35.486,1.140,51.680,0.14,0.15,0.17,-619.0,10.347,90703.359,923.795,-2931.750,0.7,1.616,8579.0,0.650,8579.0,924.227,-89.32,0.221
8665,5,8665,79,0.107,0.157,0.399,35.676,1.490,51.783,0.29,0.51,0.17,-619.0,10.338,90701.78,924.512,-2972.861,0.1,2.126,8659.0,0.377,8659.0,924.115,-77.143,0.259
8745,5,8745,80,-1.356,0.423,0.434,35.486,1.549,51.973,0.22,0.13,0.25,-619.0,10.347,90704.593,925.135,-3007.942,0.7,1.616,8739.0,0.499,8739.0,924.737,-89.31,0.282
8825,5,8825,80,0.21,0.50,0.320,35.705,1.812,51.885,0.20,0.14,0.21,-619.0,10.342,90703.554,924.209,-3047.330,0.2,2.261,8819.0,0.485,8819.0,924.530,-74.216,0.207
8905,5,8905,80,0.308,0.165,0.218,35.238,1.826,51.520,0.20,0.30,0.12,-619.0,10.338,90703.359,924.833,-3090.450,0.0,2.0,8899.0,0.592,8899.0,924.530,-79.807,0.141
8985,5,8985,80,0.279,0.179,0.391,35.676,1.622,51.841,0.6,0.38,0.17,-619.0,10.347,90704.398,923.587,-3135.7,0.0,1.982,8979.0,0.521,8979.0,924.548,-80.412,0.254
9080,5,9080,95,0.330,0.150,0.363,35.150,1.841,51.651,0.41,0.31,0.9,-619.0,10.347,90696.718,924.607,-3175.642,0.3,2.433,9074.0,0.334,9074.0,924.246,-72.46,0.235
9160,5,9160,80,0.667,0.265,0.470,35.252,1.783,51.739,0.20,0.65,0.14,-619.0,10.333,90702.320,924.512,-3208.713,0.1,2.150,9154.0,0.492,9154.0,924.115,-77.36,0.305
9240,5,9240,80,0.165,0.488,-2.322,34.565,1.578,51.929,0.2,0.47,0.11,-619.0,10.352,90703.359,923.813,-3252.982,0.2,2.234,9234.0,0.614,9234.0,923.925,-75.475,-1.508
9320,5,9320,80,0.545,0.122,0.370,34.975,1.593,52.163,0.17,0.6,0.15,-619.0,10.347,90707.914,924.417,-3295.816,0.3,1.768,9314.0,0.456,9314.0,924.227,-85.517,0.240
9406,5,9406,86,0.545,0.107,0.370,35.662,2.104,52.31,0.18,0.29,0.18,-619.0,10.338,90705.640,924.115,-3334.145,0.2,1.815,9400.0,0.434,9400.0,924.453,-83.719,0.240
9486,5,9486,80,0.875,0.43,0.743,35.223,1.900,51.607,0.31,0.4,0.15,-587.0,10.347,90716.843,924.2,-3372.958,0.4,2.470,9480.0,0.535,9480.0,924.133,-70.770,0.482
9576,5,9576,90,0.308,0.315,0.463,34.434,1.753,51.783,0.15,0.2,0.22,-619.0,10.333,90706.875,923.664,-3397.565,0.2,1.828,9570.0,0.11,9570.0,924.340,-84.70,0.301
9662,5,9662,86,0.710,0.71,0.370,34.361,1.710,51.710,0.32,0.58,0.11,-619.0,10.338,90695.476,924.625,-3418.974,0.8,4.778,9655.0,0.492,9655.0,923.605,-41.889,0.240
9741,5,9741,79,0.969,0.57,0.528,35.574,1.315,52.133,0.11,0.35,0.21,-619.0,10.342,90705.640,924.115,-3457.500,0.2,1.827,9735.0,0.470,9735.0,923.813,-84.264,0.343
9821,5,9821,80,0.495,0.215,0.427,35.428,1.388,52.250,0.27,0.38,0.10,-619.0,10.342,90704.593,923.813,-3493.442,0.6,1.662,9815.0,0.427,9815.0,924.322,-88.422,0.277
9901,5,9901,80,0.674,0.122,0.499,35.618,1.66,51.636,0.25,0.30,0.15,-619.0,10.352,90712.281,924.737,-3527.662,0.7,3.531,9895.0,0.427,9895.0,923.717,-55.627,0.324
9981,5,9981,80,0.279,0.172,0.449,35.267,1.271,52.16,0.12,0.13,0.16,-619.0,10.352,90704.398,924.737,-3555.564,0.8,1.582,9975.0,0.269,9975.0,924.435,-89.740,0.291
10061,5,10061,80,0.531,0.35,0.427,35.764,1.490,51.622,0.13,0.38,0.17,-619.0,10.347,90707.718,924.20,-3580.595,0.3,2.432,10055.0,0.355,10055.0,924.133,-71.748,0.277
10167,5,10167,106,0.272,0.100,0.887,34.682,1.330,51.505,0.18,0.21,0.17,-619.0,10.319,90703.554,924.684,-3542.615,0.0,2.0,10161.0,1.72,10161.0,924.133,-80.46,0.576
10247,5,10247,80,0.552,0.100,0.420,35.19,1.593,51.417,0.13,0.64,0.13,-587.0,10.338,90702.320,924.115,-3520.555,0.3,1.778,10241.0,0.521,10241.0,924.417,-85.279,0.273
10327,5,10327,80,0.753,0.114,0.420,35.179,1.885,51.929,0.22,0.42,0.7,-619.0,10.352,90709.156,924.192,-3559.369,0.1,2.105,10321.0,0.449,10321.0,924.322,-78.488,0.273
10406,5,10406,79,0.653,0.57,0.413,35.559,1.403,51.373,0.22,0.31,0.6,-619.0,10.352,90700.39,924.833,-3593.728,0.2,2.261,10400.0,0.420,10400.0,924.115,-75.348,0.268
10486,5,10486,80,0.789,0.7,0.492,35.515,1.622,51.710,0.17,0.50,0.13,-619.0,10.352,90714.757,923.587,-3631.393,0.0,1.982,10480.0,0.521,10480.0,924.133,-81.30,0.319
10566,5,10566,80,0.818,0.186,0.513,35.296,1.432,51.666,0.11,0.21,0.20,-619.0,10.352,90703.164,923.795,-3667.622,0.6,3.42,10560.0,0.384,10560.0,923.623,-61.770,0.333
10664,5,10664,98,0.538,0.7,0.470,35.545,1.8,51.256,0.7,0.41,0.15,-619.0,10.342,90709.351,924.192,-3706.328,0.7,1.582,10657.0,0.413,10657.0,924.340,-90.279,0.305
10743,5,10743,79,0.473,0.7,0.391,34.536,1.520,51.651,0.15,0.38,0.16,-619.0,10.338,90709.351,924.97,-3750.884,0.4,2.511,10737.0,0.700,10737.0,924.2,-70.280,0.254
10823,5,10823,80,0.574,0.50,0.355,34.258,1.651,50.935,0.19,0.13,0.16,-587.0,10.347,90700.39,924.305,-3794.5,0.4,1.757,10817.0,0.377,10817.0,924.322,-85.350,0.231
10903,5,10903,80,0.531,-1.773,0.413,34.668,1.724,50.891,0.22,0.52,0.10,-619.0,10.352,90705.640,923.587,-3824.778,0.2,1.815,10897.0,0.391,10897.0,924.548,-84.256,0.268
10988,5,10988,85,0.488,0.35,0.269,35.545,1.768,51.753,0.20,0.37,0.13,-619.0,10.342,90705.640,924.512,-3869.69,0.8,4.778,10982.0,0.650,10982.0,923.813,-41.680,0.175
11068,5,11068,80,0.380,0.35,0.585,34.828,1.914,51.505,0.12,0.24,0.16,-619.0,10.352,90703.359,924.530,-3915.61,0.4,1.757,11062.0,0.499,11062.0,924.133,-85.982,0.380
11158,5,11158,90,0.509,0.208,0.406,35.472,1.505,52.119,0.15,0.20,0.18,-619.0,10.338,90702.515,924.400,-3950.4,0.5,3.118,11152.0,0.276,11152.0,923.605,-60.700,0.263
11244,5,11244,86,0.50,0.93,0.363,34.551,1.417,51.695,0.47,0.48,0.7,-619.0,10.333,90697.757,924.512,-3989.877,0.10,1.519,11238.0,0.650,11238.0,924.530,-92.465,0.235
11324,5,11324,80,0.71,0.122,0.305,34.580,1.81,51.943,0.18,0.21,0.13,-619.0,10.352,90709.156,924.209,-4027.542,0.1,1.899,11318.0,0.291,11318.0,924.642,-82.994,0.198
11404,5,11404,80,0.35,0.143,0.298,34.419,2.148,52.31,0.20,0.42,0.21,-587.0,10.347,90700.39,924.400,-4057.741,0.10,6.312,11398.0,0.463,11398.0,923.830,-30.346,0.193
11489,5,11489,85,0.122,0.0,0.528,34.960,1.826,51.885,0.13,0.35,0.23,-619.0,10.333,90717.39,924.2,-4093.184,0.1,2.151,11483.0,0.370,11483.0,923.699,-77.328,0.343
11569,5,11569,80,0.301,0.143,0.513,34.112,1.900,51.520,0.32,0.54,0.7,-619.0,10.342,90710.195,923.889,-4127.690,0.4,1.757,11563.0,0.492,11563.0,924.20,-86.303,0.333
11659,5,11659,90,0.789,0.43,0.312,34.492,1.110,51.651,0.36,0.36,0.5,-587.0,10.338,90711.437,924.80,-4176.847,0.4,2.708,11653.0,0.600,11653.0,923.605,-66.761,0.203
11741,5,11741,82,0.638,-2.778,0.248,34.142,1.490,51.534,0.14,0.40,0.10,-619.0,10.333,90701.273,924.97,-4073.398,0.2,1.840,11734.0,3.154,11734.0,923.795,-84.586,0.161
11820,5,11820,79,0.753,0.7,0.894,34.551,1.929,51.271,0.23,0.54,0.11,-619.0,10.347,90701.273,924.512,-3950.553,0.3,1.767,11814.0,0.83,11814.0,924.97,-85.731,0.580
11900,5,11900,80,0.782,0.43,0.707,34.565,2.2,51.505,0.21,0.39,0.11,-587.0,10.347,90705.640,923.587,-3969.267,0.2,2.235,11894.0,0.384,11894.0,923.907,-76.186,0.459
11979,5,11979,79,0.251,0.107,0.391,35.238,1.578,51.549,0.24,0.4,0.17,-619.0,10.347,90706.679,924.400,-3997.671,0.5,2.656,11973.0,0.334,11973.0,923.510,-67.583,0.254
12059,5,12059,80,0.480,0.35,0.147,34.814,2.2,51.476,0.51,0.13,0.11,-619.0,10.342,90704.398,924.322,-4023.563,0.11,1.519,12053.0,0.312,12053.0,924.435,-92.218,0.95
12139,5,12139,80,0.409,0.215,0.377,34.215,2.2,51.315,0.14,0.54,0.29,-619.0,10.342,90702.320,924.209,-4051.179,0.12,-25.468,12133.0,0.377,12133.0,923.397,30.817,0.245
12245,5,12245,106,0.495,0.21,0.442,34.419,1.242,51.198,0.10,0.29,0.19,-619.0,10.328,90703.750,924.269,-4090.812,0.4,1.654,12239.0,0.370,12239.0,923.925,-88.658,0.287
12325,5,12325,80,0.208,0.7,0.413,35.19,1.330,51.534,0.22,0.17,0.14,-619.0,10.328,90708.312,924.702,-4118.715,0.4,1.724,12319.0,0.327,12319.0,924.305,-86.598,0.268
12405,5,12405,80,0.344,0.78,0.391,35.165,1.242,51.666,0.14,0.37,0.25,-619.0,10.338,90709.156,924.2,-4150.924,0.6,3.40,12399.0,0.477,12399.0,923.795,-62.418,0.254
12485,5,12485,80,0.71,0.229,0.434,34.785,1.256,51.578,0.25,0.7,0.12,-619.0,10.342,90709.156,924.97,-4184.856,0.1,1.899,12479.0,0.370,12479.0,923.907,-82.493,0.282
12565,5,12565,80,0.394,0.129,0.391,34.814,1.578,51.286,0.15,0.37,0.17,-619.0,10.342,90701.273,924.512,-4219.76,0.2,1.827,12559.0,0.485,12559.0,924.115,-83.842,0.254
12645,5,12645,80,0.107,0.258,0.355,34.887,1.753,51.607,0.32,0.36,0.12,-619.0,10.347,90705.835,924.209,-4252.721,0.3,2.432,12639.0,0.355,12639.0,923.813,-72.64,0.231
12748,5,12748,103,0.272,0.43,0.413,35.545,2.46,51.388,0.33,0.30,0.9,-619.0,10.319,90706.31,923.646,-4286.832,0.4,1.707,12741.0,0.312,12741.0,924.227,-87.294,0.268
12827,5,12827,79,0.107,0.64,0.341,35.340,1.520,51.710,0.5,0.32,0.22,-619.0,10.338,90704.789,923.569,-4317.31,0.6,3.200,12821.0,0.442,12821.0,923.681,-59.886,0.221
12907,5,12907,80,0.172,0.143,0.327,35.705,1.461,51.914,0.35,0.32,0.10,-619.0,10.338,90701.273,924.80,-4346.656,0.6,1.654,12901.0,0.298,12901.0,924.209,-88.438,0.212
12987,5,12987,80,0.236,0.100,0.470,35.808,1.300,51.826,0.26,0.44,0.16,-619.0,10.338,90703.750,924.589,-4377.143,0.11,14.342,12981.0,0.463,12981.0,923.284,6.608,0.305
13073,5,13073,86,0.244,0.186,0.406,35.179,1.23,51.929,0.19,0.39,0.19,-619.0,10.333,90710.390,924.400,-4414.854,0.7,1.616,13067.0,0.413,13067.0,923.907,-90.67,0.263
13153,5,13153,80,0.394,0.57,0.434,35.837,1.549,51.476,0.37,0.50,0.13,-619.0,10.338,90706.875,924.512,-4448.787,0.11,1.519,13147.0,0.434,13147.0,924.833,-92.150,0.282
13243,5,13243,90,0.581,0.14,0.492,35.340,1.256,51.8,0.18,0.54,0.15,-619.0,10.328,90702.710,924.287,-4481.792,0.6,3.535,13237.0,0.298,13237.0,924.227,-55.413,0.319
13328,5,13328,85,0.394,0.358,0.203,35.77,1.607,50.906,0.21,0.43,0.11,-619.0,10.333,90708.117,924.192,-4490.83,0.5,2.761,13322.0,0.103,13322.0,923.795,-65.814,0.132
13408,5,13408,80,0.524,0.57,0.506,35.282,1.140,51.651,0.21,0.46,0.11,-619.0,10.333,90705.835,923.795,-4503.341,0.0,1.982,13402.0,0.434,13402.0,923.813,-80.934,0.329
13488,5,13488,80,0.480,0.136,0.456,34.916,1.198,51.900,0.22,0.33,0.13,-619.0,10.342,90710.390,924.97,-4534.976,0.0,2.0,13482.0,0.355,13482.0,923.813,-79.515,0.296
13574,5,13574,86,0.251,0.21,0.456,34.975,1.388,51.973,0.22,0.33,0.14,-619.0,10.342,90704.593,924.209,-4565.588,0.7,3.656,13568.0,0.355,13568.0,923.189,-53.920,0.296
13654,5,13654,80,0.545,0.157,0.370,35.92,1.388,51.943,0.13,0.24,0.19,-619.0,10.342,90700.39,924.97,-4602.105,0.18,1.407,13648.0,0.556,13648.0,924.642,-95.612,0.240
13744,5,13744,90,0.114,0.186,0.442,35.647,1.344,51.359,0.32,0.3,0.12,-619.0,10.333,90704.789,923.759,-4641.248,0.2,2.261,13738.0,0.312,13738.0,924.435,-74.757,0.287
13830,5,13830,86,0.143,0.114,0.542,35.603,1.534,51.900,0.18,0.0,0.21,-619.0,10.338,90700.234,924.702,-4662.47,0.7,3.779,13823.0,0.176,13823.0,923.795,-52.87,0.352
13909,5,13909,79,0.445,0.416,0.291,35.296,1.680,51.636,0.32,0.0,0.11,-619.0,10.333,90698.992,924.2,-4697.989,0.5,1.706,13903.0,0.722,13903.0,924.209,-87.152,0.189
13989,5,13989,80,0.380,0.193,0.434,34.755,1.359,51.958,0.13,0.65,0.21,-619.0,10.342,90702.515,924.209,-4743.120,0.0,1.982,13983.0,0.406,13983.0,924.227,-80.295,0.282
14069,5,14069,80,0.638,0.236,0.341,35.618,1.593,52.338,0.20,0.28,0.10,-619.0,10.342,90714.757,924.209,-4774.755,0.4,2.470,14063.0,0.384,14063.0,923.907,-70.666,0.221
14149,5,14149,80,0.258,0.165,0.320,35.77,1.432,51.739,0.16,0.34,0.16,-619.0,10.338,90700.39,925.135,-4803.806,0.7,1.616,14143.0,0.341,14143.0,924.530,-88.840,0.207
14229,5,14229,80,0.57,0.394,0.399,35.325,1.300,51.695,0.4,0.34,0.18,-619.0,10.338,90704.593,924.192,-4837.164,0.5,2.710,14223.0,0.492,14223.0,924.115,-66.724,0.259
14336,5,14336,107,0.244,0.279,0.413,35.325,1.271,51.403,0.38,0.21,0.15,-619.0,10.314,90702.710,924.251,-4887.541,0.0,1.913,14330.0,0.449,14330.0,924.209,-81.795,0.268
14416,5,14416,80,0.107,0.21,0.427,35.618,1.315,51.724,0.11,0.40,0.17,-619.0,10.324,90708.312,924.684,-4920.899,0.1,2.173,14410.0,0.384,14410.0,924.61,-76.792,0.277
14496,5,14496,80,0.653,0.265,0.485,34.945,1.680,51.607,0.15,0.40,0.13,-587.0,10.328,90702.515,924.512,-4958.277,0.3,1.804,14490.0,0.549,14490.0,924.305,-85.57,0.315
14575,5,14575,79,0.308,0.100,0.442,35.179,1.66,51.724,0.28,0.22,0.13,-619.0,10.338,90705.835,924.702,-4994.904,0.2,1.828,14569.0,0.377,14569.0,924.512,-84.464,0.287
14655,5,14655,80,0.294,0.179,0.355,35.530,1.388,51.403,0.8,0.27,0.16,-619.0,10.347,90704.789,924.287,-5024.529,0.4,2.658,14649.0,0.363,14649.0,924.115,-67.252,0.231
14735,5,14735,80,0.208,0.14,0.434,34.858,1.505,51.198,0.35,0.29,0.12,-619.0,10.338,90702.515,923.889,-5054.441,0.1,1.913,14729.0,0.384,14729.0,924.209,-82.69,0.282
14826,5,14826,91,0.229,0.21,0.427,35.150,0.701,51.534,0.15,0.28,0.27,-619.0,10.328,90700.234,924.702,-5090.426,0.2,2.261,14820.0,0.406,14820.0,924.2,-74.666,0.277
14907,5,14907,81,0.251,0.839,4.274,35.252,0.789,52.630,0.16,0.29,0.15,-619.0,10.328,90702.710,924.607,-4929.965,0.6,1.662,14900.0,4.417,14900.0,924.512,-88.25,2.775
14986,5,14986,79,0.308,0.35,0.456,34.945,0.847,50.774,0.23,0.31,0.14,-619.0,10.333,90703.554,924.287,-4769.504,0.6,3.40,14980.0,0.406,14980.0,924.2,-61.516,0.296
15066,5,15066,80,0.114,0.35,0.391,35.662,1.198,51.900,0.17,0.35,0.11,-619.0,10.338,90704.789,923.681,-4800.565,0.6,1.654,15060.0,0.370,15060.0,924.530,-88.627,0.254
15151,5,15151,85,0.466,0.150,0.442,34.945,1.96,51.446,0.23,0.35,0.16,-619.0,10.338,90703.750,925.22,-4836.923,0.3,2.472,15145.0,0.485,15145.0,924.209,-70.544,0.287
15231,5,15231,80,0.279,0.0,0.377,34.989,1.286,51.841,0.20,0.26,0.13,-619.0,10.333,90707.70,924.305,-4872.4,0.0,2.0,15225.0,0.391,15225.0,924.209,-79.815,0.245
15311,5,15311,80,0.244,0.107,0.377,35.486,1.140,51.198,0.25,0.35,0.13,-619.0,10.338,90696.914,924.494,-4902.204,0.5,2.708,15305.0,0.363,15305.0,923.795,-66.158,0.245
15407,5,15407,96,0.157,0.7,0.363,35.267,1.256,51.37,0.28,0.40,0.11,-619.0,10.328,90700.429,923.872,-4937.409,0.4,1.706,15401.0,0.370,15401.0,924.209,-87.395,0.235
15487,5,15487,80,0.445,0.93,0.434,34.989,0.643,51.66,0.16,0.47,0.15,-619.0,10.328,90701.273,924.797,-4969.44,0.1,2.126,15481.0,0.420,15481.0,924.97,-77.971,0.282
15567,5,15567,80,0.416,1.816,0.312,35.77,1.300,51.315,0.26,0.31,0.10,-619.0,10.333,90700.429,924.589,-5002.689,0.0,2.0,15561.0,0.420,15561.0,924.97,-80.233,0.203
15652,5,15652,85,0.315,0.35,0.406,34.887,1.140,51.446,0.18,0.41,0.12,-619.0,10.328,90702.515,924.494,-5037.217,0.2,1.828,15646.0,0.391,15646.0,924.305,-84.257,0.263
15732,5,15732,80,0.452,0.78,0.334,34.25,0.920,51.549,0.18,0.32,0.16,-619.0,10.338,90709.351,924.97,-5066.555,0.0,1.982,15726.0,0.341,15726.0,924.322,-80.207,0.217
15812,5,15812,80,0.323,0.7,0.427,35.442,0.979,51.490,0.21,0.36,0.14,-619.0,10.333,90699.187,924.287,-5097.616,0.1,1.898,15806.0,0.434,15806.0,924.435,-82.225,0.277
15930,5,15930,118,0.208,0.50,0.406,34.682,0.950,51.695,0.18,0.21,0.16,-619.0,10.314,90700.625,923.948,-5147.242,0.0,1.928,15923.0,0.413,15923.0,924.512,-81.534,0.263
16009,5,16009,79,0.179,0.86,0.449,35.179,1.198,51.563,0.17,0.33,0.15,-619.0,10.328,90703.750,924.987,-5182.36,0.1,1.913,16003.0,0.456,16003.0,924.607,-81.896,0.291
16089,5,16089,80,0.143,0.28,0.442,35.369,1.154,51.563,0.27,0.25,0.15,-619.0,10.324,90703.750,924.97,-5216.829,0.0,2.0,16083.0,0.413,16083.0,924.607,-80.255,0.287
16169,5,16169,80,0.323,0.64,0.413,34.902,1.110,51.724,0.17,0.40,0.19,-619.0,10.328,90707.70,925.22,-5253.59,0.3,2.433,16163.0,0.492,16163.0,924.305,-71.447,0.268
16249,5,16249,80,0.323,0.107,0.370,34.989,1.330,51.812,0.17,0.25,0.16,-587.0,10.338,90702.515,925.22,-5290.724,0.0,1.982,16243.0,0.449,16243.0,924.322,-80.410,0.240
16329,5,16329,80,0.165,0.64,0.427,35.384,1.914,51.724,0.26,0.30,0.11,-619.0,10.333,90702.515,924.702,-5324.369,0.4,1.715,16323.0,0.391,16323.0,924.720,-86.951,0.277
16419,5,16419,90,0.308,0.50,0.442,34.872,1.666,51.753,0.11,0.40,0.23,-587.0,10.324,90699.187,923.872,-5361.896,0.4,2.660,16413.0,0.442,16413.0,924.322,-68.69,0.287
16499,5,16499,80,0.315,0.315,-1.217,34.448,2.396,51.563,0.21,0.23,0.14,-619.0,10.328,90698.992,924.400,-5361.372,0.0,2.17,16493.0,0.455,16493.0,924.305,-79.843,0.790
16579,5,16579,80,0.157,0.28,0.320,34.551,1.841,50.979,0.21,0.25,0.11,-619.0,10.338,90703.554,923.889,-5356.541,0.1,2.105,16573.0,0.334,16573.0,924.209,-77.985,0.207
16659,5,16659,80,0.409,0.43,0.442,34.799,1.315,51.125,0.17,0.37,0.18,-619.0,10.338,90700.234,924.607,-5387.889,0.2,2.261,16653.0,0.449,16653.0,924.2,-74.949,0.287
16739,5,16739,80,0.323,0.107,0.363,34.244,1.710,51.344,0.25,0.31,0.12,-619.0,10.342,90704.593,924.400,-5423.831,0.2,2.261,16733.0,0.449,16733.0,923.795,-74.944,0.235
16819,5,16819,80,0.394,0.35,0.384,35.4,1.636,50.950,0.18,0.36,0.16,-619.0,10.333,90698.992,924.209,-5459.199,0.5,1.706,16813.0,0.434,16813.0,924.209,-87.471,0.249
16898,5,16898,79,0.366,0.129,0.348,34.98,1.943,51.403,0.16,0.28,0.16,-619.0,10.328,90703.554,924.97,-5489.305,0.0,2.0,16892.0,0.327,16892.0,924.209,-79.637,0.226
16989,5,16989,91,0.337,0.21,0.384,33.995,1.783,51.125,0.26,0.32,0.13,-619.0,10.328,90695.867,924.269,-5521.341,0.3,2.433,16982.0,0.384,16982.0,923.907,-71.40,0.249
17068,5,17068,79,0.430,0.14,0.427,34.127,1.856,51.578,0.21,0.35,0.14,-619.0,10.328,90700.429,924.382,-5551.828,0.4,1.715,17062.0,0.377,17062.0,924.305,-86.558,0.277
17148,5,17148,80,0.545,0.28,0.363,34.448,2.133,51.680,0.12,0.25,0.11,-619.0,10.333,90703.750,924.494,-5584.324,0.3,2.433,17142.0,0.434,17142.0,924.2,-71.661,0.235
17234,5,17234,86,0.186,0.172,0.348,34.258,1.768,51.753,0.7,0.28,0.21,-619.0,10.328,90701.664,923.889,-5618.641,0.8,1.582,17228.0,0.363,17228.0,924.720,-90.296,0.226
17314,5,17314,80,0.818,0.14,0.499,35.19,1.929,51.534,0.23,0.33,0.8,-619.0,10.328,90704.789,924.494,-5653.147,0.11,18.429,17308.0,0.499,17308.0,923.777,16.944,0.324
17394,5,17394,80,0.315,0.150,0.477,34.975,1.710,51.154,0.7,0.15,0.14,-619.0,10.333,90711.632,924.684,-5692.248,0.6,1.654,17388.0,0.477,17388.0,924.305,-88.133,0.310
17479,5,17479,85,0.394,0.165,0.513,35.179,2.75,51.125,0.18,0.29,0.8,-619.0,10.338,90704.789,924.494,-5734.97,0.1,1.913,17473.0,0.506,17473.0,924.400,-82.182,0.333
17569,5,17569,90,0.559,0.50,0.477,35.121,1.900,51.183,0.26,0.25,0.11,-619.0,10.324,90710.585,924.476,-5772.594,0.2,2.235,17563.0,0.348,17563.0,924.209,-75.586,0.310
17649,5,17649,80,0.272,0.35,0.370,35.19,2.250,51.81,0.14,0.14,0.19,-619.0,10.319,90701.664,924.269,-5803.81,0.4,1.715,17643.0,0.413,17643.0,924.607,-87.286,0.240
17735,5,17735,86,0.114,0.7,0.327,35.764,1.578,51.183,0.18,0.23,0.14,-619.0,10.324,90701.468,924.382,-5838.324,0.4,2.710,17729.0,0.406,17729.0,924.192,-66.548,0.212
17815,5,17815,80,0.279,0.172,0.442,35.603,1.417,51.432,0.5,0.30,0.18,-619.0,10.328,90708.312,923.854,-5871.682,0.10,1.546,17809.0,0.427,17809.0,925.22,-91.0,0.287
17895,5,17895,80,0.129,0.150,0.341,35.676,1.622,51.227,0.27,0.31,0.13,-619.0,10.324,90700.429,924.476,-5907.337,0.11,14.352,17889.0,0.463,17889.0,924.97,6.588,0.221
17980,5,17980,85,0.236,0.14,0.327,35.647,1.856,51.154,0.24,0.36,0.21,-619.0,10.324,90703.750,924.779,-5946.441,0.3,1.778,17974.0,0.456,17974.0,924.382,-85.799,0.212
18088,5,18088,108,0.323,0.100,0.391,35.632,1.929,51.286,0.20,0.32,0.21,-619.0,10.305,90705.382,924.856,-6002.579,0.2,1.816,18081.0,0.592,18081.0,924.607,-84.411,0.254
18167,5,18167,79,0.358,0.0,0.391,35.282,2.250,51.563,0.25,0.40,0.19,-619.0,10.314,90709.546,924.346,-6042.541,0.8,3.931,18161.0,0.406,18161.0,923.948,-50.387,0.254
18246,5,18246,79,0.323,0.7,0.434,35.179,1.373,51.417,0.18,0.28,0.18,-619.0,10.319,90697.109,924.269,-6077.467,0.8,1.609,18240.0,0.477,18240.0,924.589,-89.242,0.282
18326,5,18326,80,0.301,0.150,0.470,35.428,1.870,51.227,0.23,0.30,0.18,-619.0,10.328,90698.343,924.684,-6113.696,0.2,2.261,18320.0,0.427,18320.0,924.382,-75.82,0.305
18406,5,18406,80,0.287,0.28,0.427,34.989,1.344,51.330,0.17,0.34,0.17,-619.0,10.328,90702.710,924.891,-6148.777,0.2,2.234,18400.0,0.449,18400.0,924.192,-75.201,0.277
18486,5,18486,80,0.344,0.7,0.406,34.887,1.973,51.520,0.15,0.31,0.13,-619.0,10.333,90703.750,924.797,-6180.699,0.4,1.757,18480.0,0.348,18480.0,924.512,-85.605,0.263
18577,5,18577,91,0.366,0.71,0.370,35.472,2.133,51.198,0.25,0.32,0.10,-587.0,10.324,90699.390,924.459,-6214.398,0.1,2.104,18571.0,0.391,18571.0,924.417,-76.787,0.240
18657,5,18657,80,0.351,0.14,0.406,35.574,2.75,51.403,0.19,0.34,0.19,-619.0,10.314,90700.429,924.779,-6248.43,0.1,2.149,18651.0,0.449,18651.0,924.287,-77.293,0.263
18736,5,18736,79,0.358,0.193,0.427,35.121,0.964,51.286,0.17,0.29,0.10,-619.0,10.328,90700.429,924.476,-6280.984,0.1,1.898,18730.0,0.384,18730.0,924.400,-82.835,0.277
18816,5,18816,80,0.409,0.14,0.384,34.785,1.110,51.666,0.24,0.24,0.17,-619.0,10.328,90706.31,925.4,-6313.768,0.2,2.262,18810.0,0.434,18810.0,924.192,-74.754,0.249
18896,5,18896,80,0.251,0.129,0.399,35.413,1.856,51.461,0.18,0.30,0.14,-619.0,10.333,90702.710,924.589,-6346.838,0.3,1.767,18890.0,0.391,18890.0,924.494,-85.769,0.259
18976,5,18976,80,0.287,0.114,0.492,35.121,1.490,51.286,0.19,0.34,0.8,-619.0,10.324,90700.429,924.476,-6379.622,0.2,1.816,18970.0,0.427,18970.0,924.720,-85.1,0.319
19056,5,19056,80,0.229,0.21,0.348,35.179,2.31,50.906,0.20,0.30,0.16,-619.0,10.319,90707.265,925.4,-6412.980,0.5,2.710,19050.0,0.406,19050.0,924.305,-66.542,0.226
19147,5,19147,91,0.208,0.50,0.470,35.238,1.856,51.388,0.20,0.31,0.19,-619.0,10.324,90702.710,924.269,-6444.47,0.7,4.542,19140.0,0.284,19140.0,923.587,-44.365,0.305
19231,5,19231,84,0.366,0.86,0.449,34.916,2.104,51.710,0.23,0.35,0.17,-619.0,10.324,90702.710,924.589,-6474.608,0.8,1.588,19225.0,0.434,19225.0,924.287,-90.56,0.291
19311,5,19311,80,0.337,0.14,0.434,34.726,2.31,51.403,0.20,0.31,0.15,-619.0,10.324,90700.429,924.684,-6507.966,0.7,1.616,19305.0,0.399,19305.0,924.909,-89.154,0.282
19391,5,19391,80,0.265,0.21,0.413,35.238,1.505,51.753,0.19,0.34,0.17,-619.0,10.333,90702.515,924.269,-6542.186,0.8,4.535,19385.0,0.456,19385.0,924.192,-44.116,0.268
19471,5,19471,80,0.236,0.64,0.391,35.62,1.753,51.783,0.19,0.32,0.16,-619.0,10.328,90699.187,924.891,-6578.415,0.0,1.982,19465.0,0.449,19465.0,924.209,-80.839,0.254
19557,5,19557,86,0.344,0.35,0.413,35.954,1.856,51.753,0.20,0.32,0.14,-619.0,10.328,90696.914,924.382,-6615.201,0.2,2.291,19551.0,0.406,19551.0,923.984,-73.987,0.268
19647,5,19647,90,2.160,7.645,0.483,35.749,2.353,51.826,0.17,0.34,0.22,-619.0,10.319,90692.546,925.194,-6714.104,0.1,2.104,19641.0,-1.791,19641.0,923.889,-77.716,0.314
19727,5,19727,80,0.301,0.43,0.370,36.27,2.148,51.417,0.21,0.28,0.18,-619.0,10.319,90702.710,924.987,-6799.722,0.1,2.126,19721.0,0.348,19721.0,923.777,-77.778,0.240
19812,5,19812,85,0.272,0.21,0.420,35.399,1.870,51.315,0.19,0.34,0.13,-619.0,10.338,90703.750,924.382,-6831.503,0.4,1.706,19806.0,0.399,19806.0,924.192,-86.972,0.273
19892,5,19892,80,0.330,0.78,0.413,35.559,2.75,51.286,0.20,0.29,0.18,-619.0,10.333,90703.750,925.22,-6863.426,0.3,2.433,19886.0,0.399,19886.0,923.889,-71.454,0.268
19972,5,19972,80,0.301,0.43,0.463,35.559,1.958,51.797,0.19,0.25,0.17,-619.0,10.333,90699.390,924.684,-6895.348,0.0,2.0,19966.0,0.399,19966.0,923.889,-80.48,0.301
20063,5,20063,91,0.244,0.28,0.399,35.603,1.929,51.593,0.17,0.28,0.13,-619.0,10.324,90702.710,924.589,-6930.353,0.12,1.468,20057.0,0.370,20057.0,925.22,-93.440,0.259
20170,5,20170,107,0.337,0.35,0.477,35.223,2.104,51.563,0.17,0.30,0.8,-619.0,10.305,90698.539,924.251,-6975.313,0.7,6.899,20163.0,0.477,20163.0,924.192,-25.466,0.310
20249,5,20249,79,0.294,0.0,0.420,35.311,1.914,50.920,0.23,0.33,0.13,-619.0,10.319,90699.585,924.364,-7013.553,0.4,2.470,20243.0,0.477,20243.0,923.872,-70.391,0.273
20335,5,20335,86,0.430,0.100,0.492,34.843,1.826,51.490,0.18,0.34,0.14,-619.0,10.324,90703.750,924.61,-7050.339,0.8,1.576,20329.0,0.377,20329.0,924.607,-90.877,0.319
20415,5,20415,80,0.200,0.122,0.384,34.989,1.520,51.388,0.28,0.29,0.12,-619.0,10.328,90696.914,924.494,-7080.251,0.6,3.115,20409.0,0.370,20409.0,924.80,-60.740,0.249
20495,5,20495,80,0.337,0.35,0.434,35.735,1.710,51.446,0.15,0.37,0.15,-619.0,10.333,90696.914,923.984,-7109.302,0.5,1.698,20489.0,0.355,20489.0,924.512,-87.403,0.282
20574,5,20574,79,0.409,0.35,0.420,34.858,1.768,51.490,0.21,0.35,0.17,-619.0,10.333,90703.554,924.815,-7141.108,0.5,2.708,20568.0,0.449,20568.0,924.97,-66.891,0.273
20665,5,20665,91,0.287,0.7,0.406,35.121,1.680,51.739,0.21,0.30,0.9,-619.0,10.324,90700.429,923.966,-7179.380,0.1,1.899,20659.0,0.391,20659.0,924.209,-82.933,0.263
20745,5,20745,80,0.330,0.43,0.449,35.194,1.578,51.622,0.18,0.34,0.12,-619.0,10.333,90703.750,924.589,-7211.15,0.2,2.261,20739.0,0.399,20739.0,924.2,-74.756,0.291
20825,5,20825,80,0.323,0.107,0.370,35.77,1.432,50.979,0.20,0.24,0.17,-619.0,10.338,90699.187,925.135,-7244.373,0.4,1.757,20819.0,0.434,20819.0,924.322,-86.99,0.240
20905,5,20905,80,0.208,0.35,0.363,34.390,1.680,51.841,0.23,0.35,0.11,-619.0,10.328,90700.234,923.681,-7276.583,0.1,1.913,20899.0,0.370,20899.0,924.417,-81.578,0.235
20985,5,20985,80,0.423,0.7,0.427,35.165,1.563,51.739,0.21,0.40,0.11,-619.0,10.333,90700.234,924.494,-7305.920,0.1,2.105,20979.0,0.363,20979.0,924.322,-77.994,0.277
21064,5,21064,79,0.358,0.71,0.427,35.486,1.563,51.330,0.19,0.34,0.15,-619.0,10.333,90701.273,924.927,-7333.757,0.3,1.767,21058.0,0.341,21058.0,924.625,-85.317,0.277
21144,5,21144,80,0.251,0.21,0.434,34.770,1.973,51.242,0.19,0.32,0.11,-619.0,10.342,90693.390,924.607,-7363.95,0.2,2.261,21138.0,0.391,21138.0,924.417,-74.953,0.282
21235,5,21235,91,1.686,7.350,-3.500,35.618,1.651,51.768,0.15,0.39,0.13,-619.0,10.328,90701.468,924.400,-7483.319,0.0,2.0,21228.0,-2.279,21228.0,924.417,-80.29,-2.272
21314,5,21314,79,0.423,0.129,0.442,35.77,0.964,51.710,0.19,0.37,0.16,-619.0,10.333,90705.835,924.400,-7591.907,0.2,2.291,21308.0,0.434,21308.0,924.192,-74.392,0.287
21394,5,21394,80,0.337,0.64,0.384,34.975,1.520,51.768,0.26,0.28,0.17,-587.0,10.333,90698.796,924.607,-7626.414,0.3,2.398,21388.0,0.427,21388.0,923.907,-72.197,0.249
21474,5,21474,80,0.315,0.7,0.384,35.267,1.680,51.622,0.20,0.29,0.14,-619.0,10.338,90702.515,924.512,-7660.633,0.4,1.715,21468.0,0.427,21468.0,924.305,-86.630,0.249
21559,5,21559,85,0.208,0.50,0.420,34.887,1.666,51.563,0.21,0.31,0.18,-619.0,10.328,90705.835,923.569,-7696.381,0.1,2.105,21553.0,0.413,21553.0,924.209,-77.689,0.273
21639,5,21639,80,0.236,0.57,0.456,35.457,1.636,51.315,0.23,0.32,0.13,-587.0,10.338,90696.914,925.117,-7728.303,0.1,1.898,21633.0,0.384,21633.0,924.322,-82.821,0.296
21719,5,21719,80,0.330,0.7,0.535,35.939,1.973,51.651,0.18,0.28,0.16,-619.0,10.338,90704.593,923.889,-7758.502,0.1,2.127,21713.0,0.370,21713.0,924.209,-76.922,0.347
21809,5,21809,90,0.208,0.78,0.420,35.574,1.943,51.183,0.19,0.25,0.18,-619.0,10.328,90701.273,924.400,-7791.831,0.1,2.104,21803.0,0.370,21803.0,924.115,-78.26,0.273
21895,5,21895,86,0.272,0.50,0.420,35.267,1.826,51.8,0.23,0.29,0.15,-619.0,10.338,90704.789,924.494,-7827.73,0.3,2.470,21889.0,0.449,21889.0,923.795,-70.872,0.273
21975,5,21975,80,0.251,0.122,0.363,35.559,1.549,51.37,0.18,0.28,0.10,-619.0,10.338,90702.320,924.305,-7860.431,0.4,1.757,21969.0,0.384,21969.0,924.115,-85.701,0.235
22055,5,22055,80,0.193,0.136,0.341,35.121,1.563,51.724,0.21,0.33,0.14,-619.0,10.342,90705.835,924.494,-7892.354,0.1,2.127,22049.0,0.413,22049.0,924.2,-77.446,0.221
22140,5,22140,85,0.287,0.64,0.399,35.92,1.651,51.534,0.23,0.33,0.13,-619.0,10.333,90698.992,924.512,-7927.796,0.7,1.616,22134.0,0.420,22134.0,924.625,-89.349,0.259
22220,5,22220,80,0.488,0.122,0.434,34.989,1.724,51.8,0.20,0.37,0.16,-619.0,10.352,90702.320,924.417,-7962.590,0.4,2.660,22214.0,0.449,22214.0,924.227,-67.961,0.282
22328,5,22328,108,0.323,0.57,0.456,35.705,1.534,51.446,0.23,0.33,0.12,-619.0,10.310,90703.945,924.156,-8012.967,0.2,2.290,22321.0,0.492,22321.0,924.2,-73.716,0.296
22412,5,22412,84,0.358,0.28,0.370,35.179,1.636,51.812,0.20,0.32,0.13,-619.0,10.324,90701.468,924.192,-8052.681,0.0,2.18,22406.0,0.442,22406.0,923.984,-79.436,0.240
22492,5,22492,80,0.344,0.7,0.377,35.92,1.461,51.271,0.15,0.31,0.18,-619.0,10.338,90702.515,924.909,-8086.326,0.0,1.982,22486.0,0.399,22486.0,924.2,-80.626,0.245
22572,5,22572,80,0.358,0.143,0.406,35.179,1.66,51.52,0.25,0.29,0.12,-619.0,10.338,90702.320,924.305,-8117.387,0.2,2.207,22566.0,0.377,22566.0,923.830,-75.510,0.263
22652,5,22652,80,0.236,0.14,0.370,35.19,1.476,51.651,0.21,0.30,0.15,-619.0,10.338,90708.960,925.230,-8147.12,0.7,1.623,22646.0,0.363,22646.0,924.435,-89.470,0.240
22732,5,22732,80,0.301,0.64,0.427,35.764,1.900,51.622,0.18,0.34,0.13,-619.0,10.342,90706.875,924.417,-8177.498,0.8,1.588,22726.0,0.399,22726.0,925.135,-89.798,0.277
22823,5,22823,91,-1.730,0.28,0.404,35.252,1.973,51.432,0.24,0.39,0.18,-619.0,10.328,90703.554,925.4,-7720.613,0.6,3.420,22817.0,10.440,22817.0,924.548,-57.376,0.262
22902,5,22902,79,0.358,0.93,0.420,34.975,1.695,51.739,0.24,0.38,0.9,-587.0,10.333,90700.39,924.97,-7325.111,0.1,2.150,22896.0,0.427,22896.0,924.417,-76.759,0.273
22982,5,22982,80,0.344,0.57,0.406,34.653,1.783,51.344,0.17,0.33,0.18,-619.0,10.342,90702.320,924.512,-7360.479,0.7,3.528,22976.0,0.456,22976.0,923.813,-54.983,0.263
23062,5,23062,80,0.337,0.57,0.442,34.858,2.119,51.534,0.25,0.34,0.14,-619.0,10.342,90706.875,924.2,-7395.272,0.10,1.551,23056.0,0.413,23056.0,924.625,-91.425,0.287
23142,5,23142,80,0.344,0.7,0.348,35.282,1.666,51.169,0.23,0.36,0.12,-619.0,10.342,90704.593,924.2,-7427.195,0.3,2.433,23136.0,0.384,23136.0,924.322,-71.22,0.226
23222,5,23222,80,0.258,0.122,0.413,35.77,1.666,51.388,0.17,0.31,0.20,-587.0,10.342,90705.640,924.833,-7459.404,0.6,3.37,23216.0,0.420,23216.0,923.813,-61.518,0.268
23302,5,23302,80,0.315,0.28,0.434,35.150,1.607,51.563,0.25,0.35,0.13,-619.0,10.338,90698.796,924.417,-7495.634,0.7,1.616,23296.0,0.485,23296.0,924.435,-90.48,0.282
23392,5,23392,90,0.308,0.28,0.384,34.741,1.300,51.417,0.25,0.29,0.15,-619.0,10.338,90702.320,925.230,-7532.745,0.2,2.233,23385.0,0.348,23385.0,924.246,-75.613,0.249
23471,5,23471,79,0.186,0.64,0.370,35.749,1.213,51.388,0.18,0.27,0.17,-619.0,10.342,90706.875,923.795,-7562.944,0.2,2.292,23465.0,0.406,23465.0,924.20,-73.947,0.240
23551,5,23551,80,0.265,0.14,0.420,35.194,1.403,51.417,0.25,0.30,0.19,-619.0,10.352,90710.195,924.400,-7597.450,0.0,2.0,23545.0,0.456,23545.0,924.20,-80.19,0.273
23631,5,23631,80,0.366,0.35,0.420,35.662,1.417,52.206,0.21,0.30,0.13,-619.0,10.342,90704.593,924.305,-7633.105,0.1,2.104,23625.0,0.434,23625.0,923.925,-78.83,0.273
23717,5,23717,86,0.294,0.64,0.556,35.311,1.958,51.549,0.20,0.30,0.12,-619.0,10.342,90704.593,924.512,-7670.509,0.5,1.662,23711.0,0.434,23711.0,924.435,-88.314,0.361
23797,5,23797,80,0.136,0.86,0.334,35.428,1.300,51.154,0.22,0.31,0.12,-619.0,10.338,90706.679,924.305,-7705.877,0.4,2.470,23791.0,0.449,23791.0,924.115,-70.757,0.217
23877,5,23877,80,0.294,0.28,0.434,34.945,1.680,51.490,0.21,0.32,0.20,-619.0,10.352,90703.554,923.907,-7739.235,0.2,2.262,23871.0,0.384,23871.0,923.907,-74.314,0.282
23977,5,23977,100,0.215,0.21,0.406,35.209,1.680,50.935,0.19,0.30,0.24,-619.0,10.324,90699.187,924.607,-7778.61,0.9,1.519,23971.0,0.391,23971.0,924.833,-91.663,0.263
24057,5,24057,80,0.251,0.43,0.477,35.135,1.753,51.213,0.19,0.28,0.17,-619.0,10.342,90704.789,924.97,-7810.558,0.6,3.118,24051.0,0.420,24051.0,924.305,-60.171,0.310
24137,5,24137,80,0.315,0.57,0.334,34.755,1.710,51.549,0.19,0.31,0.14,-619.0,10.342,90697.109,924.702,-7845.351,0.7,3.535,24131.0,0.449,24131.0,923.699,-54.792,0.217
24229,5,24229,92,0.337,0.50,0.391,35.33,1.344,51.227,0.22,0.32,0.15,-619.0,10.338,90704.789,924.192,-7883.52,0.7,1.588,24223.0,0.370,24223.0,924.400,-90.246,0.254
24309,5,24309,80,0.358,0.21,0.456,34.828,1.271,51.490,0.19,0.36,0.19,-619.0,10.333,90705.835,924.607,-7913.539,0.0,1.982,24303.0,0.391,24303.0,924.417,-80.730,0.296
24389,5,24389,80,3.244,2.282,5.724,35.150,1.753,52.192,0.13,0.31,0.26,-619.0,10.342,90702.710,924.400,-8011.503,0.6,3.118,24383.0,-2.57,24383.0,923.889,-60.687,3.717
24502,5,24502,113,0.832,0.7,0.305,35.92,1.783,51.768,0.22,0.58,0.14,-619.0,10.314,90701.664,924.364,-8143.830,0.2,2.433,24495.0,0.305,24495.0,923.587,-72.99,0.198
24581,5,24581,79,0.538,0.50,0.363,34.945,1.359,52.16,0.29,0.43,0.13,-619.0,10.333,90700.429,924.797,-8166.563,0.11,1.524,24575.0,0.262,24575.0,924.494,-91.610,0.235
24661,5,24661,80,0.689,0.28,0.607,35.632,1.710,51.607,0.19,0.42,0.8,-619.0,10.333,90702.710,924.382,-8194.178,0.6,2.969,24655.0,0.427,24655.0,924.2,-62.217,0.394
24746,5,24746,85,0.351,0.64,0.320,34.902,1.110,51.271,0.24,0.36,0.14,-619.0,10.342,90704.789,924.287,-8232.672,0.1,2.127,24740.0,0.477,24740.0,923.889,-77.239,0.207
24826,5,24826,80,0.480,0.28,0.391,34.492,1.315,51.300,0.20,0.40,0.13,-619.0,10.333,90703.554,924.607,-8272.60,0.3,2.433,24820.0,0.506,24820.0,923.587,-71.326,0.254
24906,5,24906,80,0.552,0.86,0.391,34.653,1.578,51.344,0.18,0.36,0.19,-619.0,10.338,90700.39,924.720,-8307.141,0.9,1.576,24900.0,0.370,24900.0,924.322,-90.534,0.254
24997,5,24997,91,0.337,0.21,0.399,35.4,1.344,51.446,0.25,0.37,0.7,-619.0,10.328,90687.789,924.797,-8343.126,0.2,1.827,24991.0,0.420,24991.0,924.530,-83.991,0.259
25077,5,25077,80,0.229,0.35,0.442,35.179,1.724,51.373,0.23,0.33,0.12,-619.0,10.333,90701.468,924.494,-8379.356,0.8,3.783,25071.0,0.485,25071.0,923.889,-51.934,0.287
25157,5,25157,80,0.222,0.7,0.377,34.653,1.520,51.958,0.31,0.39,0.12,-619.0,10.333,90701.273,924.192,-8413.289,0.1,2.104,25151.0,0.363,25151.0,923.795,-77.917,0.245
25236,5,25236,79,0.358,1.823,0.355,35.121,1.563,51.666,0.18,0.48,0.17,-619.0,10.328,90707.70,923.984,-8447.81,0.1,2.127,25230.0,0.492,25230.0,923.681,-77.830,0.231
25316,5,25316,80,0.588,0.150,0.413,34.419,1.710,51.96,0.20,0.23,0.20,-619.0,10.338,90700.429,924.494,-8475.557,0.4,2.658,25310.0,0.219,25310.0,923.284,-67.792,0.268
25396,5,25396,80,0.358,0.129,0.492,35.267,1.856,51.256,0.27,0.58,0.10,-619.0,10.328,90709.546,924.80,-8504.321,0.14,1.468,25390.0,0.499,25390.0,924.417,-93.542,0.319
25476,5,25476,80,0.373,0.373,0.470,34.902,2.31,51.330,0.8,0.1,0.25,-619.0,10.328,90699.187,923.777,-8534.233,0.6,3.118,25470.0,0.248,25470.0,923.889,-59.775,0.305
25567,5,25567,91,0.574,0.208,0.521,35.121,1.943,51.213,0.39,0.31,0.10,-619.0,10.328,90701.468,924.779,-8559.808,0.3,1.757,25560.0,0.320,25560.0,924.209,-85.514,0.338
25646,5,25646,79,0.186,0.129,0.399,34.609,2.46,51.636,0.14,0.14,0.16,-619.0,10.324,90703.750,924.382,-8589.720,0.3,1.767,25640.0,0.427,25640.0,924.512,-85.357,0.259
25731,5,25731,85,0.143,0.215,0.284,34.814,1.987,51.140,0.26,0.8,0.17,-619.0,10.314,90704.984,924.684,-8623.28,0.1,1.913,25725.0,0.355,25725.0,924.607,-82.3,0.184
25811,5,25811,80,0.14,0.50,0.341,35.472,2.148,51.490,0.28,0.18,0.9,-619.0,10.324,90705.187,924.269,-8649.495,0.8,3.787,25805.0,0.305,25805.0,923.966,-52.199,0.221
25891,5,25891,80,0.323,0.129,0.399,35.282,2.250,51.300,0.3,0.43,0.27,-619.0,10.319,90703.750,924.684,-8677.971,0.6,2.969,25885.0,0.406,25885.0,923.474,-62.881,0.259
25971,5,25971,80,-2.569,-3.460,7.834,35.77,1.826,52.236,0.28,0.19,0.7,-619.0,10.328,90703.945,924.364,-8709.893,0.8,1.581,25965.0,0.391,25965.0,924.192,-90.114,5.87
26057,5,26057,86,0.100,0.28,0.284,35.282,1.885,51.256,0.18,0.46,0.13,-619.0,10.319,90701.664,924.666,-8745.444,0.1,1.898,26051.0,0.434,26051.0,924.305,-82.129,0.184
26147,5,26147,90,0.373,0.272,0.456,34.989,1.856,51.841,0.1,0.35,0.23,-619.0,10.314,90701.859,924.571,-8783.941,0.4,2.763,26141.0,0.420,26141.0,923.872,-65.704,0.296
26227,5,26227,80,0.64,0.236,0.348,34.945,1.812,51.739,0.37,0.25,0.11,-619.0,10.324,90707.460,924.779,-8814.140,0.12,1.495,26221.0,0.334,26221.0,924.891,-92.790,0.226
26313,5,26313,86,0.236,0.193,0.384,35.515,2.46,51.826,0.32,0.51,0.8,-619.0,10.314,90699.390,924.987,-8842.283,0.10,14.451,26307.0,0.320,26307.0,923.966,6.171,0.249
26393,5,26393,80,0.610,0.150,0.413,35.19,1.739,51.797,0.77,0.30,0.21,-619.0,10.319,90704.984,923.854,-8876.502,0.4,1.756,26387.0,0.535,26387.0,924.287,-86.148,0.268
26473,5,26473,80,0.122,0.86,0.370,35.457,2.31,51.607,0.27,0.17,0.16,-619.0,10.319,90701.859,924.666,-8911.9,0.2,2.261,26467.0,0.327,26467.0,924.80,-74.678,0.240
26559,5,26559,86,0.157,-1.837,0.399,34.682,2.2,51.563,0.15,0.28,0.19,-619.0,10.319,90703.945,924.666,-8940.79,0.1,1.914,26553.0,0.348,26553.0,924.174,-82.287,0.259
26669,5,26669,110,0.215,0.165,0.449,35.267,1.636,51.826,0.8,0.21,0.17,-619.0,10.291,90692.937,924.440,-8976.922,0.1,1.827,26662.0,0.327,26662.0,924.382,-83.944,0.291
26748,5,26748,79,0.301,0.107,0.334,34.668,2.2,51.359,0.27,0.31,0.16,-619.0,10.296,90701.15,924.838,-9009.418,0.2,2.291,26742.0,0.485,26742.0,924.156,-74.26,0.217
26838,5,26838,90,0.430,0.200,0.449,35.223,1.958,51.695,0.29,0.27,0.13,-619.0,10.310,90698.539,924.440,-9048.884,0.1,2.149,26832.0,0.391,26832.0,924.26,-76.726,0.291
26918,5,26918,80,0.244,0.186,0.485,34.624,1.710,51.593,0.5,0.41,0.21,-619.0,10.301,90701.859,924.554,-9081.381,0.0,2.84,26912.0,0.420,26912.0,923.948,-78.465,0.315
26998,5,26998,80,0.552,0.7,0.449,35.19,1.797,51.578,0.29,0.41,0.14,-619.0,10.305,90702.906,924.156,-9113.303,0.0,2.82,26992.0,0.377,26992.0,923.872,-78.302,0.291
27077,5,27077,79,0.559,0.21,0.420,34.960,1.593,51.476,0.19,0.28,0.13,-619.0,10.310,90701.859,924.666,-9145.677,0.1,2.127,27071.0,0.442,27071.0,923.759,-77.169,0.273
27168,5,27168,91,0.452,0.71,0.391,34.975,1.710,51.651,0.15,0.45,0.14,-619.0,10.301,90703.101,924.761,-9192.441,0.5,1.662,27162.0,0.585,27162.0,924.269,-88.270,0.254
27248,5,27248,80,0.717,0.28,0.427,34.492,1.636,51.914,0.33,0.49,0.8,-619.0,10.305,90700.820,924.233,-9234.988,0.3,1.778,27242.0,0.477,27242.0,924.554,-85.327,0.277
27328,5,27328,80,0.358,0.179,0.284,35.413,1.695,51.812,0.16,0.28,0.14,-619.0,10.310,90702.906,924.138,-9269.782,0.7,3.535,27322.0,0.391,27322.0,923.948,-55.558,0.184
27408,5,27408,80,0.107,0.43,0.226,35.150,1.271,51.359,0.24,0.35,0.17,-619.0,10.310,90699.781,924.459,-9320.942,0.2,2.233,27402.0,0.887,27402.0,923.759,-75.660,0.147
27488,5,27488,80,0.437,0.172,0.442,35.135,1.636,51.724,0.10,0.33,0.19,-619.0,10.305,90701.859,924.44,-9376.984,0.0,2.17,27482.0,0.513,27482.0,923.741,-80.704,0.287
27567,5,27567,79,0.78,7.637,7.942,35.457,1.505,52.382,0.16,0.15,0.11,-619.0,10.314,90704.335,924.156,-9694.892,0.7,3.534,27561.0,-7.534,27561.0,923.136,-55.358,5.157
27647,5,27647,80,0.602,0.107,0.556,34.960,1.403,51.695,0.35,0.9,0.15,-619.0,10.305,90709.742,924.156,-10003.903,0.7,1.622,27641.0,0.190,27641.0,923.741,-89.406,0.361
27738,5,27738,91,0.768,0.150,0.571,34.931,1.417,51.724,0.32,0.5,0.0,-619.0,10.310,90703.101,924.536,-10027.863,0.2,2.234,27731.0,0.341,27731.0,923.552,-75.639,0.371
27818,5,27818,80,0.179,0.7,0.355,34.565,1.315,51.8,0.5,0.72,0.14,-619.0,10.305,90707.656,924.856,-10063.91,0.8,1.582,27812.0,0.528,27812.0,924.269,-90.410,0.231
27898,5,27898,80,-1.205,0.43,0.298,35.48,1.680,51.373,0.25,0.35,0.21,-619.0,10.305,90698.539,924.666,-10120.856,0.7,1.623,27892.0,0.915,27892.0,924.874,-89.423,0.193
27978,5,27978,80,0.646,0.279,0.284,35.179,1.929,51.461,0.8,0.22,0.29,-619.0,10.305,90701.859,924.346,-10177.185,0.5,2.710,27972.0,0.492,27972.0,924.459,-66.977,0.184
28063,5,28063,85,0.581,0.638,0.535,35.92,2.60,51.520,0.10,0.27,0.18,-619.0,10.310,90702.54,924.631,-10217.509,0.2,2.234,28057.0,0.456,28057.0,924.269,-75.30,0.347
28143,5,28143,80,0.150,0.64,0.499,34.405,1.783,51.286,0.64,0.27,0.5,-619.0,10.301,90703.296,924.120,-10256.610,0.2,2.290,28137.0,0.521,28137.0,924.44,-73.743,0.324
28223,5,28223,80,0.653,0.136,0.434,34.580,2.60,51.330,0.17,0.41,0.23,-619.0,10.301,90706.617,924.138,-10299.444,0.0,2.0,28217.0,0.549,28217.0,924.44,-80.89,0.282
28319,5,28319,96,0.818,0.480,0.542,34.872,1.724,51.958,0.23,0.12,0.13,-619.0,10.287,90708.242,924.595,-10352.567,0.2,2.291,28313.0,0.556,28313.0,923.818,-74.374,0.352
28412,5,28412,93,0.760,0.610,0.650,35.106,1.958,51.125,0.44,0.53,0.7,-619.0,10.287,90704.531,924.405,-10372.987,0.0,1.928,28406.0,0.117,28406.0,923.895,-81.785,0.422
28492,5,28492,80,-1.485,1.823,0.707,35.77,1.520,51.81,0.1,0.30,0.19,-619.0,10.291,90706.812,924.423,-10376.482,0.0,1.982,28486.0,0.205,28486.0,923.912,-80.275,0.459
28572,5,28572,80,0.43,0.308,0.707,35.340,1.695,51.739,0.33,0.21,0.3,-619.0,10.291,90713.648,924.311,-10401.513,0.1,1.897,28566.0,0.420,28566.0,924.26,-82.912,0.459
28657,5,28657,85,0.244,0.100,0.327,34.712,2.46,51.476,0.13,0.10,0.16,-619.0,10.291,90701.15,924.311,-10436.346,0.2,2.262,28651.0,0.399,28651.0,923.818,-74.501,0.212
28738,5,28738,81,0.21,0.272,0.449,35.399,1.388,51.593,0.8,0.21,0.27,-619.0,10.296,90707.851,924.311,-10469.417,0.5,1.706,28731.0,0.427,28731.0,924.233,-87.341,0.291
28845,5,28845,107,0.638,0.21,0.341,34.916,1.856,51.607,0.18,0.40,0.20,-619.0,10.273,90707.203,924.275,-10512.900,0.1,1.828,28839.0,0.377,28839.0,924.440,-83.842,0.221
28930,5,28930,85,0.21,0.150,0.442,35.106,2.90,52.280,0.16,0.36,0.18,-619.0,10.273,90702.445,924.613,-10552.614,0.6,3.200,28924.0,0.556,28924.0,923.895,-60.55,0.287
29010,5,29010,80,0.961,0.114,0.513,34.931,2.148,52.353,0.30,0.49,0.13,-619.0,10.287,90704.726,924.311,-10599.754,0.4,1.757,29004.0,0.621,29004.0,924.215,-85.640,0.333
29090,5,29090,80,0.746,0.28,0.463,35.4,2.762,51.710,0.11,0.18,0.16,-619.0,10.291,90704.531,924.103,-10640.865,0.7,3.527,29084.0,0.406,29084.0,923.611,-55.173,0.301
29176,5,29176,86,0.86,0.279,0.578,35.150,1.812,51.271,0.18,0.44,0.9,-619.0,10.287,90705.773,924.725,-10657.586,0.9,1.546,29170.0,0.17,29170.0,924.440,-91.649,0.375
29256,5,29256,80,0.509,0.21,0.513,35.33,1.929,52.148,0.29,0.30,0.9,-619.0,10.296,90706.617,924.820,-10673.716,0.2,2.261,29250.0,0.420,29250.0,924.233,-74.610,0.333
29347,5,29347,91,0.445,0.21,0.434,35.165,1.710,51.607,0.26,0.34,0.10,-619.0,10.287,90710.328,924.215,-10712.967,0.6,3.531,29341.0,0.442,29341.0,923.628,-55.313,0.282
29426,5,29426,79,-1.945,0.696,0.183,35.501,2.90,51.403,0.21,0.4,0.11,-619.0,10.287,90703.492,924.500,-10715.1,0.0,1.929,29420.0,0.390,29420.0,923.705,-81.671,0.119
29506,5,29506,80,0.21,0.143,0.442,35.705,1.563,51.783,0.0,0.32,0.26,-619.0,10.287,90711.179,924.215,-10712.754,0.4,1.756,29500.0,0.334,29500.0,924.26,-86.382,0.287
29586,5,29586,80,0.358,0.279,0.377,35.618,1.417,51.520,0.34,0.37,0.11,-619.0,10.301,90702.54,924.423,-10739.508,0.5,1.707,29580.0,0.334,29580.0,924.440,-86.707,0.245
29666,5,29666,80,0.473,0.78,0.449,34.843,2.119,51.783,0.25,0.37,0.12,-619.0,10.291,90700.820,924.631,-10765.401,0.4,2.657,29660.0,0.312,29660.0,924.44,-67.765,0.291
29747,5,29747,81,0.71,0.315,0.276,35.33,1.914,52.148,0.14,0.9,0.19,-619.0,10.296,90704.531,923.705,-10789.571,0.6,1.662,29740.0,0.291,29740.0,924.554,-88.710,0.179
29826,5,29826,79,0.323,1.730,0.521,35.399,1.666,51.900,0.23,0.45,0.10,-619.0,10.301,90706.812,923.592,-10820.57,0.5,2.710,29820.0,0.470,29820.0,924.138,-67.410,0.338
29915,5,29915,89,0.574,0.14,0.427,35.501,1.549,51.520,0.13,0.36,0.18,-619.0,10.287,90700.171,923.687,-10859.723,0.1,1.913,29909.0,0.420,29909.0,924.233,-82.149,0.277
29995,5,29995,80,0.401,0.107,0.463,35.135,1.52,51.432,0.20,0.21,0.21,-619.0,10.287,90706.812,924.518,-10893.82,0.0,1.928,29989.0,0.413,29989.0,924.311,-81.693,0.301
30075,5,30075,80,0.165,0.43,0.363,34.828,1.403,52.148,0.16,0.23,0.14,-619.0,10.291,90711.179,924.8,-10924.142,0.6,2.969,30069.0,0.363,30069.0,923.818,-63.207,0.235
30155,5,30155,80,0.122,0.114,0.384,35.179,1.227,51.870,0.19,0.38,0.13,-619.0,10.287,90705.578,924.8,-10952.619,0.10,1.546,30149.0,0.348,30149.0,924.648,-91.447,0.249
30235,5,30235,80,0.409,0.28,0.463,36.27,1.534,52.177,0.29,0.58,0.15,-619.0,10.291,90707.656,924.215,-10985.115,0.11,14.440,30229.0,0.463,30229.0,923.723,6.406,0.301
30315,5,30315,80,0.502,0.0,0.571,35.852,1.476,51.739,0.9,0.44,0.12,-619.0,10.296,90703.296,924.8,-11026.512,0.4,1.756,30309.0,0.571,30309.0,924.44,-85.147,0.371
510587,2,510587,480272,0.64,0.43,0.334,9.836,16.603,48.260,0.25,0.23,0.21,-459.0,11.748,90624.656,931.473,-257828.609,0.0,1.118,510577.0,0.456,510577.0,931.492,-1030.784,0.217
510697,2,510697,110,0.93,0.50,0.506,10.40,16.895,47.646,0.28,0.26,0.24,-459.0,11.724,90629.648,931.548,-257878.484,0.1,2.232,510688.0,0.442,510688.0,931.303,-1000.84,0.329
510780,2,510780,83,0.100,0.0,0.413,9.587,16.427,48.12,0.26,0.21,0.22,-491.0,11.743,90627.156,931.568,-257911.906,0.5,2.835,510771.0,0.363,510771.0,930.848,-989.850,0.268
510862,2,510862,82,0.50,0.50,0.406,8.462,16.822,47.997,0.26,0.24,0.25,-459.0,11.748,90631.515,930.678,-257943.156,0.4,1.745,510853.0,0.399,510853.0,931.189,-1010.560,0.263
510945,2,510945,83,0.57,0.43,0.513,9.558,17.100,48.143,0.26,0.21,0.27,-459.0,11.748,90623.406,931.492,-257974.187,0.2,1.814,510936.0,0.348,510936.0,931.417,-1008.534,0.333
511028,2,511028,83,0.86,0.78,0.377,9.485,16.837,47.866,0.25,0.24,0.22,-491.0,11.762,90627.984,931.606,-258004.625,0.2,2.261,511019.0,0.384,511019.0,931.209,-999.872,0.245
511111,2,511111,83,0.129,0.57,0.413,9.339,16.924,47.924,0.27,0.29,0.23,-459.0,11.752,90621.117,931.303,-258035.953,0.2,1.828,511102.0,0.370,511102.0,931.417,-1008.717,0.268
511205,2,511205,94,0.86,0.100,0.384,9.237,16.501,48.304,0.25,0.21,0.23,-491.0,11.757,90621.117,931.75,-258075.828,0.6,3.664,511196.0,0.477,511196.0,930.792,-978.142,0.249
511288,2,511288,83,0.107,0.107,0.391,9.558,16.691,47.617,0.27,0.21,0.25,-459.0,11.762,90623.406,931.95,-258114.312,0.10,1.545,511279.0,0.449,511279.0,931.625,-1016.440,0.254
511370,2,511370,82,0.150,0.21,0.399,9.456,16.442,47.719,0.26,0.20,0.23,-491.0,11.766,90630.54,931.815,-258149.968,0.8,4.569,511361.0,0.420,511361.0,930.905,-968.714,0.259
511453,2,511453,83,0.50,0.93,0.370,8.842,16.574,48.26,0.26,0.22,0.25,-459.0,11.757,90628.804,931.511,-258183.390,0.3,1.767,511444.0,0.384,511444.0,931.209,-1010.335,0.240
511536,2,511536,83,0.136,0.100,0.370,9.441,16.544,47.749,0.25,0.23,0.21,-459.0,11.757,90625.484,931.303,-258215.609,0.3,1.756,511527.0,0.391,511527.0,931.531,-1010.663,0.240
511620,2,511620,84,0.157,0.7,0.355,8.433,16.895,47.749,0.28,0.26,0.27,-491.0,11.757,90625.484,931.606,-258249.328,0.7,3.537,511610.0,0.420,511610.0,930.925,-979.451,0.231
511713,2,511713,93,0.114,0.28,0.427,9.397,16.427,47.822,0.29,0.26,0.25,-491.0,11.757,90622.156,931.417,-258289.875,0.5,1.661,511704.0,0.442,511704.0,931.436,-1013.236,0.277
511796,2,511796,83,0.157,0.64,0.449,8.520,16.603,47.632,0.26,0.26,0.24,-459.0,11.762,90626.734,931.397,-258320.906,0.1,1.913,511787.0,0.305,511787.0,931.531,-1007.113,0.291
511878,2,511878,82,0.186,0.129,0.399,9.763,16.354,47.705,0.26,0.24,0.22,-459.0,11.762,90623.195,931.303,-258346.859,0.5,1.696,511869.0,0.327,511869.0,931.967,-1011.904,0.259
511961,2,511961,83,0.186,0.35,0.355,9.514,16.179,48.202,0.26,0.24,0.21,-459.0,11.766,90620.695,931.417,-258382.656,0.12,-22.608,511952.0,0.535,511952.0,930.925,-898.509,0.231
512044,2,512044,83,0.129,0.28,0.485,8.930,16.427,47.456,0.27,0.23,0.29,-459.0,11.766,90625.484,931.1,-258421.437,0.2,1.827,512035.0,0.399,512035.0,931.133,-1009.144,0.315
512127,2,512127,83,0.150,0.43,0.406,9.733,16.705,47.690,0.27,0.22,0.27,-491.0,11.775,90626.523,931.531,-258456.46,0.2,2.263,512118.0,0.434,512118.0,930.925,-999.624,0.263
512220,2,512220,93,0.100,0.35,0.406,9.953,16.983,47.939,0.25,0.27,0.23,-491.0,11.766,90623.406,931.720,-258491.484,0.7,1.581,512211.0,0.327,512211.0,931.645,-1014.813,0.263
512303,2,512303,83,0.143,0.57,0.449,9.266,16.895,47.866,0.25,0.26,0.24,-459.0,11.766,90626.523,931.228,-258521.328,0.5,2.714,512294.0,0.391,512294.0,931.228,-991.930,0.291
512385,2,512385,82,0.150,0.64,0.499,8.886,16.471,48.348,0.26,0.18,0.22,-459.0,11.771,90625.273,931.511,-258554.343,0.3,2.435,512376.0,0.413,512376.0,930.925,-995.983,0.324
512468,2,512468,83,0.14,0.129,0.463,9.441,16.720,47.734,0.26,0.21,0.32,-459.0,11.775,90626.523,931.417,-258590.437,0.5,1.695,512459.0,0.456,512459.0,931.362,-1012.120,0.301
512551,2,512551,83,0.35,0.71,0.384,9.368,16.778,47.617,0.28,0.18,0.21,-491.0,11.775,90628.804,931.531,-258625.640,0.0,2.0,512542.0,0.391,512542.0,931.362,-1005.258,0.249
512643,2,512643,92,0.86,0.100,0.399,9.383,16.588,47.705,0.24,0.27,0.27,-459.0,11.771,90625.273,931.114,-258660.968,0.1,2.129,512633.0,0.384,512633.0,931.247,-1002.5,0.259
512752,2,512752,109,0.93,0.136,0.348,9.690,16.749,48.246,0.28,0.24,0.20,-459.0,11.757,90622.367,931.397,-258702.890,0.0,2.19,512743.0,0.377,512743.0,931.228,-1003.935,0.226
512835,2,512835,83,0.28,0.71,0.427,9.237,16.866,48.12,0.25,0.23,0.27,-459.0,11.752,90623.195,931.720,-258736.312,0.3,1.767,512826.0,0.427,512826.0,931.531,-1010.411,0.277
512918,2,512918,83,0.143,0.165,0.463,9.500,16.822,47.705,0.25,0.25,0.22,-459.0,11.762,90631.93,931.417,-258770.921,0.0,1.981,512909.0,0.406,512909.0,931.550,-1004.980,0.301
513001,2,513001,83,0.150,0.43,0.406,9.222,16.705,48.202,0.26,0.25,0.25,-459.0,11.771,90627.554,931.114,-258801.359,0.5,2.714,512992.0,0.327,512992.0,931.133,-991.305,0.263
513084,2,513084,83,0.186,0.28,0.355,9.456,16.544,47.836,0.26,0.26,0.22,-459.0,11.775,90626.312,931.739,-258831.796,0.1,1.913,513075.0,0.406,513075.0,931.228,-1006.487,0.231
513166,2,513166,82,0.50,0.21,0.449,9.675,16.413,47.573,0.25,0.22,0.26,-491.0,11.771,90628.593,931.436,-258863.640,0.4,2.660,513157.0,0.370,513157.0,930.830,-992.600,0.291
513387,2,513387,221,0.200,0.28,0.449,9.456,16.968,47.632,0.25,0.24,0.26,-491.0,11.692,90623.632,931.282,-258948.656,0.1,1.705,513378.0,0.399,513378.0,931.247,-1011.633,0.291
513470,2,513470,83,0.35,0.14,0.427,9.105,16.340,47.895,0.26,0.19,0.29,-459.0,11.738,90630.687,931.776,-258982.78,0.2,2.266,513461.0,0.406,513461.0,931.37,-999.372,0.277
513684,2,513684,214,0.193,0.0,0.420,9.573,16.47,47.559,0.25,0.28,0.28,-459.0,11.701,90625.500,931.226,-259067.828,0.1,2.327,513674.0,0.399,513674.0,930.790,-997.555,0.273
513849,2,513849,165,0.93,0.21,0.391,9.280,16.924,47.705,0.27,0.23,0.26,-459.0,11.701,90625.710,931.321,-259130.484,0.5,1.528,513840.0,0.355,513840.0,931.682,-1016.666,0.254
513932,2,513932,83,0.114,0.71,0.406,9.909,16.939,47.559,0.27,0.21,0.26,-459.0,11.729,90631.726,931.359,-259166.875,0.6,3.130,513923.0,0.521,513923.0,931.151,-985.64,0.263
514014,2,514014,82,0.193,0.57,0.406,9.3,16.647,47.866,0.28,0.27,0.21,-491.0,11.748,90627.765,930.981,-259208.421,0.0,2.60,514005.0,0.492,514005.0,931.95,-1003.779,0.263
514097,2,514097,83,0.64,0.43,0.442,8.930,16.720,47.237,0.26,0.27,0.28,-491.0,11.766,90625.273,931.834,-259245.109,0.4,2.609,514088.0,0.391,514088.0,930.716,-993.31,0.287
514180,2,514180,83,0.78,0.0,0.449,9.178,16.866,48.289,0.27,0.23,0.25,-491.0,11.771,90624.234,931.228,-259277.937,0.8,1.581,514171.0,0.399,514171.0,931.436,-1015.297,0.291
514263,2,514263,83,0.208,0.71,0.399,9.61,16.632,47.632,0.28,0.27,0.21,-459.0,11.766,90628.593,931.323,-259312.546,0.2,2.232,514254.0,0.434,514254.0,931.247,-999.576,0.259
514356,2,514356,93,0.0,0.129,0.456,9.763,16.442,47.632,0.30,0.24,0.28,-459.0,11.775,90625.273,931.417,-259353.656,0.1,2.103,514347.0,0.449,514347.0,931.153,-1002.404,0.296
514439,2,514439,83,0.43,0.35,0.427,9.836,16.749,47.939,0.29,0.19,0.26,-459.0,11.775,90629.843,931.19,-259393.625,0.3,1.767,514430.0,0.513,514430.0,931.456,-1010.289,0.277
514521,2,514521,82,0.351,0.71,0.442,9.251,16.559,47.953,0.25,0.36,0.26,-459.0,11.771,90634.421,931.645,-259431.937,0.2,2.233,514512.0,0.420,514512.0,931.266,-999.662,0.287
514604,2,514604,83,0.7,0.28,0.348,9.76,16.749,47.661,0.28,0.32,0.24,-491.0,11.785,90625.273,931.739,-259468.31,0.2,2.263,514595.0,0.449,514595.0,931.58,-999.166,0.226
514688,2,514688,84,0.64,0.64,0.355,9.368,16.822,48.202,0.26,0.14,0.24,-459.0,11.771,90621.734,931.759,-259505.625,0.3,2.473,514678.0,0.456,514678.0,930.736,-996.88,0.231
514770,2,514770,82,0.279,0.71,0.406,9.909,16.910,48.363,0.25,0.28,0.28,-459.0,11.775,90628.593,931.759,-259542.609,0.4,1.745,514761.0,0.434,514761.0,931.77,-1010.508,0.263
514863,2,514863,93,0.114,0.21,0.449,9.617,16.457,47.676,0.25,0.14,0.30,-491.0,11.771,90624.234,931.228,-259578.390,0.4,1.715,514854.0,0.334,514854.0,931.475,-1011.88,0.291
514946,2,514946,83,0.136,0.43,0.485,9.324,16.603,47.866,0.27,0.29,0.19,-459.0,11.780,90629.843,931.550,-259608.828,0.7,3.817,514937.0,0.399,514937.0,930.830,-976.899,0.315
515029,2,515029,83,0.50,0.64,0.406,9.163,17.129,48.99,0.26,0.25,0.31,-459.0,11.785,90618.195,931.531,-259641.359,0.8,1.574,515020.0,0.384,515020.0,931.569,-1015.968,0.263
515112,2,515112,83,0.107,0.35,0.413,9.821,16.691,48.143,0.27,0.20,0.25,-491.0,11.789,90626.312,931.759,-259674.781,0.11,14.872,515103.0,0.420,515103.0,930.641,-916.188,0.268
515195,2,515195,83,0.78,0.78,0.449,9.456,17.290,47.983,0.29,0.21,0.30,-459.0,11.785,90621.523,930.849,-259707.609,0.2,1.801,515186.0,0.370,515186.0,930.889,-1009.843,0.291
515278,2,515278,83,0.172,0.64,0.320,8.652,16.866,47.924,0.24,0.24,0.18,-459.0,11.775,90629.632,931.456,-259737.750,0.2,1.855,515269.0,0.355,515269.0,931.58,-1008.135,0.207
515388,2,515388,110,0.114,1.816,0.391,9.704,16.617,48.289,0.25,0.20,0.16,-491.0,11.762,90626.523,931.114,-259778.484,0.1,1.827,515379.0,0.384,515379.0,931.266,-1008.837,0.254
515471,2,515471,83,0.57,0.7,0.377,9.193,17.304,47.734,0.26,0.33,0.32,-491.0,11.775,90630.882,931.228,-259810.406,0.1,2.153,515462.0,0.384,515462.0,931.133,-1001.283,0.245
515554,2,515554,83,0.43,0.78,0.327,9.353,17.158,48.26,0.25,0.18,0.26,-491.0,11.785,90618.195,931.436,-259844.718,0.1,2.104,515545.0,0.442,515545.0,931.39,-1002.488,0.212
515637,2,515637,83,0.337,0.7,0.370,10.187,16.691,47.719,0.27,0.32,0.25,-491.0,11.785,90622.773,931.872,-259877.250,0.1,1.897,515628.0,0.341,515628.0,931.153,-1007.57,0.240
515721,2,515721,84,0.251,0.143,0.384,9.32,16.954,47.559,0.28,0.28,0.26,-491.0,11.785,90627.343,931.133,-259909.781,0.0,1.981,515711.0,0.442,515711.0,931.172,-1004.401,0.249
515802,2,515802,81,0.93,0.21,0.391,10.245,16.691,47.515,0.26,0.16,0.25,-459.0,11.785,90621.734,931.664,-259945.437,0.1,1.897,515793.0,0.427,515793.0,931.286,-1007.445,0.254
515896,2,515896,94,0.172,0.14,0.312,9.412,16.895,48.70,0.29,0.41,0.21,-491.0,11.785,90627.554,931.436,-259987.328,0.2,2.263,515887.0,0.463,515887.0,931.77,-999.73,0.203
515979,2,515979,83,0.28,0.143,0.463,9.397,16.997,47.924,0.24,0.16,0.36,-459.0,11.780,90631.921,931.664,-260025.515,0.0,2.19,515970.0,0.456,515970.0,931.58,-1004.510,0.301
516062,2,516062,83,0.93,0.35,0.384,9.3,16.895,47.924,0.26,0.24,0.9,-459.0,11.780,90626.93,931.456,-260061.906,0.1,1.913,516053.0,0.420,516053.0,931.153,-1006.281,0.249
516145,2,516145,83,0.43,0.57,0.406,9.704,16.720,47.632,0.31,0.30,0.30,-459.0,11.785,90623.812,931.58,-260098.296,0.7,1.608,516136.0,0.456,516136.0,931.797,-1014.311,0.263
516228,2,516228,83,0.7,0.100,0.370,8.696,16.501,47.617,0.26,0.24,0.25,-491.0,11.789,90627.132,931.58,-260132.609,0.11,20.140,516219.0,0.370,516219.0,930.849,-903.163,0.240
516435,2,516435,207,0.21,0.100,0.406,8.900,16.135,47.953,0.25,0.20,0.32,-459.0,11.724,90627.156,931.378,-260216.687,0.2,1.662,516426.0,0.442,516426.0,931.359,-1013.959,0.263
516594,2,516594,159,0.43,0.43,0.341,9.17,16.793,47.705,0.25,0.23,0.24,-491.0,11.715,90636.515,931.151,-260281.843,0.0,1.868,516585.0,0.377,516585.0,931.511,-1007.840,0.221
516677,2,516677,83,0.122,0.71,0.377,9.105,16.427,47.529,0.27,0.26,0.25,-459.0,11.748,90627.984,931.95,-260316.750,0.3,2.474,516668.0,0.463,516668.0,931.189,-995.807,0.245
516886,2,516886,209,0.28,0.28,0.413,9.456,16.866,47.778,0.28,0.25,0.23,-459.0,11.729,90621.539,931.662,-260404.968,0.1,1.735,516876.0,0.384,516876.0,931.548,-1011.326,0.268
516968,2,516968,82,0.50,0.14,0.420,9.32,17.451,47.603,0.25,0.23,0.23,-459.0,11.752,90623.195,931.511,-260438.984,0.5,2.829,516959.0,0.434,516959.0,931.95,-989.483,0.273
517278,2,517278,310,0.43,0.28,0.355,9.441,16.793,47.398,0.27,0.21,0.29,-459.0,11.683,90630.281,931.396,-260569.359,0.0,1.962,517269.0,0.406,517269.0,931.133,-1005.685,0.231
517360,2,517360,82,0.157,0.136,0.449,9.617,16.997,48.12,0.24,0.23,0.20,-459.0,11.734,90628.195,931.795,-260603.546,0.4,1.746,517351.0,0.427,517351.0,931.473,-1011.73,0.291
517443,2,517443,83,0.78,0.35,0.391,9.894,17.231,47.807,0.22,0.23,0.30,-491.0,11.752,90625.484,931.19,-260637.562,0.1,2.177,517434.0,0.391,517434.0,931.323,-1001.331,0.254
517526,2,517526,83,0.172,0.107,0.399,9.646,16.822,47.822,0.23,0.22,0.19,-459.0,11.780,90637.742,931.228,-260673.359,0.1,1.867,517517.0,0.470,517517.0,931.475,-1007.526,0.259
517636,2,517636,110,0.193,0.43,0.427,9.880,16.515,47.456,0.26,0.24,0.11,-459.0,11.766,90621.945,931.417,-260718.828,0.4,3.132,517627.0,0.355,517627.0,930.944,-984.989,0.277
517719,2,517719,83,0.272,0.21,0.384,9.543,16.471,47.632,0.27,0.36,0.31,-459.0,11.762,90625.273,931.342,-260754.625,0.7,1.615,517710.0,0.506,517710.0,931.569,-1014.161,0.249
517802,2,517802,83,0.43,0.64,0.449,9.748,16.720,47.968,0.25,0.24,0.30,-491.0,11.785,90618.414,931.872,-260793.703,0.8,4.570,517793.0,0.434,517793.0,930.849,-968.667,0.291
517892,2,517892,90,0.93,0.107,0.434,9.368,16.267,47.646,0.23,0.31,0.24,-459.0,11.785,90628.593,931.550,-260830.812,0.2,2.262,517882.0,0.399,517882.0,930.641,-999.397,0.282
517974,2,517974,82,0.50,0.0,0.420,9.646,16.559,47.749,0.27,0.19,0.21,-459.0,11.794,90631.710,931.362,-260864.234,0.5,1.696,517965.0,0.406,517965.0,931.77,-1011.433,0.273
518057,2,518057,83,0.136,0.129,0.406,9.690,16.734,48.99,0.25,0.25,0.17,-459.0,11.799,90622.562,931.342,-260898.843,0.1,2.104,518048.0,0.427,518048.0,930.982,-1002.148,0.263
518155,2,518155,98,0.28,0.7,0.384,8.973,16.369,47.983,0.27,0.20,0.31,-491.0,11.785,90621.734,931.550,-260941.468,0.3,1.756,518146.0,0.442,518146.0,931.304,-1010.874,0.249
518238,2,518238,83,0.265,0.122,0.463,8.667,16.47,47.676,0.26,0.26,0.18,-459.0,11.789,90630.671,931.569,-260976.375,0.2,1.854,518229.0,0.399,518229.0,931.475,-1007.612,0.301
518321,2,518321,83,2.684,-3.50,15.831,8.886,16.895,48.567,0.26,0.32,0.25,-491.0,11.803,90627.132,931.569,-260038.15,0.0,1.981,518312.0,23.9,518312.0,931.494,-1005.240,10.280
518410,2,518410,89,0.172,0.64,0.391,9.295,16.822,47.793,0.25,0.24,0.16,-491.0,11.794,90626.93,931.266,-259034.62,0.2,2.263,518401.0,0.449,518401.0,931.286,-999.588,0.254
518493,2,518493,83,0.86,0.50,0.355,9.178,16.734,47.851,0.25,0.25,0.33,-459.0,11.789,90629.210,931.172,-259068.671,0.3,2.435,518484.0,0.384,518484.0,930.982,-996.145,0.231
518576,2,518576,83,0.186,0.28,0.377,8.491,16.676,47.924,0.26,0.21,0.18,-459.0,11.794,90622.562,931.777,-259099.406,0.0,2.0,518567.0,0.355,518567.0,930.982,-1005.19,0.245
518674,2,518674,98,0.57,0.129,0.442,9.251,16.734,48.129,0.21,0.23,0.21,-491.0,11.785,90628.382,931.456,-259135.343,0.4,1.705,518665.0,0.377,518665.0,931.400,-1011.330,0.287
518757,2,518757,83,0.57,0.100,0.334,9.134,16.208,47.807,0.24,0.25,0.16,-491.0,11.794,90623.812,931.986,-259169.656,0.8,4.832,518748.0,0.449,518748.0,930.661,-966.82,0.217
518840,2,518840,83,0.14,0.21,0.477,9.412,16.413,47.705,0.26,0.18,0.29,-459.0,11.794,90627.132,931.362,-259204.265,0.5,1.705,518831.0,0.384,518831.0,931.77,-1011.325,0.310
518930,2,518930,90,0.236,0.71,0.363,9.543,16.603,47.851,0.28,0.24,0.24,-459.0,11.794,90623.812,931.286,-259241.62,0.3,2.434,518920.0,0.442,518920.0,930.774,-996.163,0.235
519012,2,519012,82,0.35,0.136,0.434,9.3,16.325,47.354,0.23,0.21,0.26,-459.0,11.808,90624.851,931.266,-259276.265,0.1,1.897,519003.0,0.406,519003.0,930.889,-1007.456,0.282
519095,2,519095,83,0.143,0.122,0.377,9.207,16.325,47.559,0.25,0.23,0.18,-459.0,11.794,90623.812,931.266,-259310.875,0.4,1.715,519086.0,0.427,519086.0,931.286,-1011.346,0.245
519193,2,519193,98,0.64,0.0,0.413,9.339,16.574,47.427,0.26,0.26,0.28,-459.0,11.799,90623.812,930.963,-259352.796,0.1,2.234,519184.0,0.427,519184.0,931.96,-1000.31,0.268
519276,2,519276,83,0.86,0.28,0.363,9.383,16.632,47.793,0.30,0.22,0.28,-491.0,11.794,90628.171,931.683,-259386.812,0.2,1.840,519267.0,0.391,519267.0,931.286,-1008.243,0.235
519359,2,519359,83,0.244,0.21,0.420,9.500,16.793,47.646,0.25,0.24,0.21,-459.0,11.799,90625.882,931.380,-259420.234,0.3,1.756,519350.0,0.413,519350.0,931.608,-1010.537,0.273
519448,2,519448,89,0.50,0.86,0.477,9.602,17.319,47.398,0.22,0.18,0.22,-459.0,11.803,90624.851,931.683,-259459.265,0.7,3.817,519439.0,0.463,519439.0,930.963,-976.148,0.310
519531,2,519531,83,0.165,0.114,0.434,9.646,16.720,47.909,0.24,0.19,0.24,-491.0,11.799,90629.210,931.286,-259495.62,0.8,1.600,519522.0,0.399,519522.0,931.627,-1014.830,0.282
519614,2,519614,83,0.86,0.43,0.391,9.149,16.720,47.866,0.28,0.24,0.38,-491.0,11.794,90622.562,931.475,-259526.687,0.2,2.263,519605.0,0.363,519605.0,931.419,-999.463,0.254
519730,2,519730,116,0.122,0.14,0.499,9.76,16.369,48.216,0.26,0.21,0.25,-459.0,11.780,90628.382,931.872,-259570.62,0.0,1.913,519721.0,0.384,519721.0,931.513,-1006.876,0.324
519813,2,519813,83,0.193,0.21,0.442,8.228,17.158,47.603,0.26,0.22,0.17,-459.0,11.789,90623.812,931.172,-259604.375,0.4,2.518,519804.0,0.442,519804.0,931.172,-994.556,0.287
520000,2,520000,187,0.236,0.93,0.492,9.76,16.851,47.968,0.23,0.32,0.19,-459.0,11.799,90629.648,931.568,-259639.281,0.2,1.814,519887.0,0.399,519887.0,931.400,-1009.192,0.319
520087,2,520087,87,0.157,0.107,0.413,9.61,16.632,48.99,0.25,0.16,0.20,-491.0,11.762,90625.484,931.114,-259713.437,0.1,2.438,520078.0,0.377,520078.0,931.95,-995.607,0.268
520170,2,520170,83,0.380,0.100,0.406,9.427,16.311,47.603,0.27,0.32,0.18,-459.0,11.775,90628.382,931.664,-259745.359,0.0,2.38,520161.0,0.391,520161.0,931.58,-1004.413,0.263
520264,2,520264,94,0.251,0.114,0.449,8.959,16.47,48.392,0.23,0.12,0.28,-459.0,11.780,90625.62,931.39,-259785.906,0.3,1.745,520255.0,0.470,520255.0,931.400,-1010.717,0.291
520353,2,520353,89,0.294,0.86,0.499,9.690,16.705,47.924,0.24,0.25,0.20,-459.0,11.794,90621.523,931.683,-259826.843,0.5,3.130,520344.0,0.449,520344.0,930.869,-985.95,0.324
520436,2,520436,83,0.50,0.7,0.305,9.690,16.822,47.442,0.27,0.25,0.29,-459.0,11.794,90623.601,931.683,-259862.343,0.6,1.661,520427.0,0.406,520427.0,931.380,-1013.67,0.198
520519,2,520519,83,0.200,0.86,0.399,9.587,16.793,47.749,0.27,0.19,0.14,-459.0,11.799,90622.562,931.380,-259892.781,0.0,1.962,520510.0,0.327,520510.0,931.419,-1005.520,0.259
520607,2,520607,88,0.86,0.14,0.391,9.543,16.18,48.70,0.31,0.29,0.34,-459.0,11.803,90630.250,932.6,-259927.890,0.1,1.913,520598.0,0.470,520598.0,931.513,-1006.846,0.254
520690,2,520690,83,0.78,0.57,0.384,9.982,16.106,47.983,0.25,0.14,0.18,-459.0,11.803,90625.671,931.96,-259962.203,0.5,2.715,520681.0,0.355,520681.0,931.96,-991.115,0.249
520783,2,520783,93,0.93,0.28,0.363,9.368,16.515,47.836,0.28,0.30,0.27,-459.0,11.799,90625.882,931.172,-259997.640,0.3,2.432,520774.0,0.406,520774.0,930.794,-995.968,0.235
520872,2,520872,89,0.78,0.114,0.470,9.500,16.252,48.304,0.26,0.21,0.22,-459.0,11.799,90625.882,931.911,-260030.593,0.5,1.670,520863.0,0.334,520863.0,931.286,-1012.637,0.305
520955,2,520955,83,0.150,0.7,0.427,8.637,16.150,48.421,0.30,0.25,0.30,-459.0,11.808,90627.960,931.191,-260065.203,0.0,1.981,520946.0,0.499,520946.0,931.304,-1005.925,0.277
521039,2,521039,84,0.129,0.57,0.384,10.114,16.837,47.617,0.25,0.23,0.17,-459.0,11.808,90623.390,931.77,-260104.578,0.2,2.232,521029.0,0.449,521029.0,931.116,-1000.271,0.249
521126,2,521126,87,0.86,0.28,0.363,9.207,16.720,47.924,0.30,0.22,0.38,-459.0,11.813,90618.812,931.608,-260140.953,0.2,2.293,521117.0,0.377,521117.0,930.889,-998.167,0.235
521209,2,521209,83,0.21,0.107,0.434,9.631,16.179,48.143,0.24,0.17,0.24,-459.0,11.803,90626.921,931.702,-260175.859,0.6,1.653,521200.0,0.463,521200.0,931.419,-1012.761,0.282
521302,2,521302,93,0.294,0.14,0.449,10.99,16.691,47.734,0.29,0.29,0.23,-459.0,11.799,90626.921,931.266,-260218.984,0.4,2.659,521293.0,0.463,521293.0,931.22,-992.365,0.291
521391,2,521391,89,0.129,0.35,0.427,9.573,16.559,47.851,0.25,0.25,0.21,-459.0,11.803,90625.671,931.816,-260258.656,0.1,2.152,521382.0,0.427,521382.0,930.889,-1001.344,0.277
521474,2,521474,83,0.71,0.143,0.434,9.266,15.814,48.319,0.26,0.8,0.24,-459.0,11.803,90621.101,931.797,-260294.750,0.3,1.756,521465.0,0.442,521465.0,931.210,-1010.114,0.282
521557,2,521557,83,0.93,0.28,0.420,9.427,15.989,47.778,0.23,0.24,0.18,-459.0,11.813,90632.531,931.380,-260334.125,0.1,2.104,521548.0,0.506,521548.0,931.116,-1002.22,0.273
521645,2,521645,88,0.21,0.14,0.434,10.201,16.164,48.114,0.26,0.22,0.26,-459.0,11.808,90624.632,931.722,-260375.234,0.1,2.127,521636.0,0.427,521636.0,931.2,-1001.956,0.282
521728,2,521728,83,0.43,0.136,0.348,9.880,16.150,48.187,0.26,0.15,0.29,-459.0,11.808,90627.960,931.400,-260410.437,0.8,1.574,521719.0,0.420,521719.0,931.741,-1014.792,0.226
521824,2,521824,96,0.258,0.122,0.413,8.973,16.91,47.763,0.24,0.28,0.22,-459.0,11.794,90622.562,931.58,-260451.500,0.3,2.435,521815.0,0.434,521815.0,931.438,-996.860,0.268
521918,2,521918,94,0.35,0.57,0.391,10.391,16.676,47.749,0.25,0.21,0.25,-459.0,11.799,90629.210,931.777,-260491.31,0.1,1.854,521909.0,0.406,521909.0,931.608,-1008.528,0.254
522001,2,522001,83,0.215,0.107,0.442,10.654,16.150,47.427,0.28,0.19,0.20,-459.0,11.803,90627.750,931.494,-260528.625,0.6,3.50,521992.0,0.499,521992.0,931.96,-985.369,0.287
522085,2,522085,84,0.43,0.57,0.399,10.143,16.252,47.515,0.28,0.19,0.26,-459.0,11.808,90623.390,931.608,-260567.109,0.2,1.814,522075.0,0.427,522075.0,931.324,-1008.773,0.259
522172,2,522172,87,0.57,0.71,0.442,9.821,16.150,47.836,0.27,0.20,0.21,-459.0,11.808,90624.421,931.400,-260606.968,0.3,2.474,522163.0,0.477,522163.0,931.2,-995.918,0.287
522255,2,522255,83,0.100,0.86,0.434,9.807,16.968,47.573,0.29,0.27,0.28,-459.0,11.808,90630.39,931.627,-260647.531,0.0,1.981,522246.0,0.499,522246.0,931.22,-1005.198,0.282
522366,2,522366,111,0.28,0.14,0.434,10.70,16.252,47.237,0.27,0.25,0.29,-459.0,11.785,90624.851,931.266,-260699.796,0.0,2.19,522357.0,0.442,522357.0,931.2,-1004.697,0.282
522454,2,522454,88,0.7,0.129,0.420,9.967,16.121,47.529,0.28,0.18,0.22,-459.0,11.799,90622.351,931.797,-260738.62,0.1,1.914,522445.0,0.427,522445.0,931.96,-1007.45,0.273
522537,2,522537,83,0.78,0.57,0.377,9.967,16.150,47.529,0.25,0.22,0.28,-459.0,11.803,90625.460,931.816,-260772.78,0.3,1.755,522528.0,0.391,522528.0,931.419,-1010.842,0.245
522620,2,522620,83,0.64,0.107,0.384,9.500,16.471,47.515,0.25,0.26,0.30,-459.0,11.813,90632.531,930.982,-260801.328,0.0,2.0,522611.0,0.312,522611.0,931.419,-1004.894,0.249
522709,2,522709,89,0.64,0.43,0.413,9.880,16.194,47.544,0.26,0.22,0.26,-459.0,11.803,90630.39,931.304,-260833.640,0.0,2.0,522700.0,0.413,522700.0,931.419,-1005.83,0.268
522792,2,522792,83,0.35,0.7,0.470,9.675,16.267,47.851,0.27,0.26,0.22,-459.0,11.808,90633.570,931.210,-260864.671,0.3,2.435,522783.0,0.334,522783.0,931.116,-996.23,0.305
522886,2,522886,94,0.86,0.35,0.399,9.32,16.705,47.617,0.26,0.23,0.24,-459.0,11.813,90622.351,931.911,-260900.500,0.2,2.262,522877.0,0.427,522877.0,930.908,-998.735,0.259
522974,2,522974,88,0.78,0.93,0.384,9.704,16.457,47.76,0.25,0.21,0.23,-459.0,11.813,90627.960,931.494,-260940.984,0.3,1.767,522965.0,0.492,522965.0,931.210,-1010.421,0.249
523057,2,523057,83,0.35,0.50,0.406,9.763,16.369,47.427,0.27,0.26,0.40,-459.0,11.808,90627.539,931.627,-260977.78,0.3,2.434,523048.0,0.377,523048.0,930.908,-996.132,0.263
523141,2,523141,84,0.244,0.14,0.334,9.237,16.427,47.500,0.24,0.22,0.15,-459.0,11.813,90631.289,931.304,-261008.109,0.6,1.653,523131.0,0.370,523131.0,931.438,-1012.735,0.217
523229,2,523229,88,0.200,0.0,0.420,9.90,16.354,47.939,0.29,0.36,0.22,-491.0,11.813,90631.70,931.513,-261044.578,0.2,2.263,523220.0,0.449,523220.0,931.230,-1000.153,0.273
523312,2,523312,83,0.50,0.7,0.442,9.777,16.676,47.836,0.29,0.22,0.27,-459.0,11.817,90630.39,930.908,-261079.187,0.2,2.262,523303.0,0.384,523303.0,931.22,-998.932,0.287
523405,2,523405,93,0.86,0.86,0.449,9.690,16.384,47.851,0.28,0.21,0.20,-459.0,11.813,90623.390,931.400,-261111.953,0.2,1.827,523396.0,0.320,523396.0,931.230,-1009.360,0.291
523493,2,523493,88,0.122,0.129,0.384,9.90,16.881,47.822,0.23,0.20,0.20,-459.0,11.808,90627.960,931.836,-261149.593,0.2,1.840,523484.0,0.535,523484.0,931.419,-1007.410,0.249
523576,2,523576,83,0.35,0.14,0.391,9.719,16.588,47.851,0.26,0.27,0.37,-459.0,11.817,90626.500,931.210,-261190.453,0.7,3.537,523567.0,0.449,523567.0,930.813,-979.549,0.254
523659,2,523659,83,0.129,0.50,0.463,9.237,16.413,47.880,0.25,0.28,0.20,-459.0,11.813,90635.859,931.96,-261225.656,0.2,1.827,523650.0,0.399,523650.0,931.22,-1008.656,0.301
523748,2,523748,89,0.50,0.71,0.406,9.441,16.691,47.544,0.28,0.23,0.25,-459.0,11.808,90626.500,931.513,-261263.93,0.9,1.545,523739.0,0.442,523739.0,931.855,-1016.25,0.263
523831,2,523831,83,0.150,0.7,0.399,10.318,16.807,47.924,0.24,0.26,0.16,-459.0,11.813,90632.320,931.722,-261298.0,0.5,2.715,523822.0,0.399,523822.0,931.438,-990.864,0.259
523924,2,523924,93,0.107,0.57,0.391,9.412,16.851,47.939,0.24,0.21,0.28,-459.0,11.813,90627.960,931.494,-261337.453,0.1,2.104,523915.0,0.449,523915.0,931.344,-1002.347,0.254
524013,2,524013,89,0.136,0.86,0.485,9.295,16.413,47.383,0.27,0.29,0.29,-491.0,11.817,90623.390,931.513,-261378.718,0.9,7.16,524004.0,0.477,524004.0,930.510,-948.798,0.315
524096,2,524096,83,0.21,0.35,0.355,8.973,17.56,47.515,0.26,0.18,0.25,-459.0,11.813,90620.890,931.627,-261414.515,0.2,1.827,524087.0,0.384,524087.0,930.718,-1008.849,0.231
524180,2,524180,84,0.236,0.157,0.499,9.222,16.617,47.544,0.29,0.25,0.31,-459.0,11.822,90625.671,931.513,-261449.718,0.5,1.705,524170.0,0.463,524170.0,931.135,-1011.578,0.324
524268,2,524268,88,0.28,0.50,0.413,9.32,16.442,47.310,0.24,0.19,0.30,-459.0,11.817,90623.171,931.816,-261493.531,0.0,2.0,524259.0,0.521,524259.0,931.135,-1004.876,0.268
524351,2,524351,83,0.136,0.14,0.377,9.733,16.544,47.529,0.26,0.23,0.21,-459.0,11.822,90623.171,931.741,-261530.515,0.1,2.128,524342.0,0.370,524342.0,931.22,-1002.134,0.245
524460,2,524460,109,0.28,0.21,0.363,9.587,16.150,47.924,0.28,0.24,0.31,-459.0,11.803,90622.351,931.683,-261572.46,0.1,1.827,524451.0,0.391,524451.0,931.230,-1008.662,0.235
524549,2,524549,89,0.265,0.71,0.463,9.821,16.705,47.793,0.27,0.30,0.22,-459.0,11.813,90629.0,931.702,-261604.46,0.4,2.772,524540.0,0.327,524540.0,930.794,-990.184,0.301
524632,2,524632,83,0.0,0.143,0.427,10.11,16.749,47.559,0.21,0.15,0.23,-491.0,11.813,90625.460,931.419,-261630.312,0.5,1.696,524623.0,0.305,524623.0,931.230,-1011.638,0.277
524715,2,524715,83,0.71,0.43,0.470,9.836,16.647,47.909,0.25,0.19,0.21,-459.0,11.813,90633.359,931.96,-261660.750,0.5,2.714,524706.0,0.427,524706.0,930.813,-991.13,0.305
524803,2,524803,88,0.258,0.64,0.384,9.514,16.822,47.880,0.27,0.27,0.29,-459.0,11.813,90631.70,931.116,-261695.859,0.1,2.104,524794.0,0.370,524794.0,930.718,-1002.216,0.249
524886,2,524886,83,0.165,0.100,0.406,9.397,17.71,47.734,0.29,0.30,0.23,-459.0,11.817,90625.460,931.627,-261727.781,0.5,1.705,524877.0,0.399,524877.0,931.135,-1011.680,0.263
524980,2,524980,94,0.35,0.7,0.399,9.485,16.559,47.807,0.25,0.22,0.25,-459.0,11.813,90625.671,931.191,-261763.937,0.3,2.435,524971.0,0.370,524971.0,930.832,-996.309,0.259
525069,2,525069,89,0.143,0.78,0.413,9.383,16.647,47.822,0.26,0.21,0.17,-459.0,11.813,90620.890,931.210,-261797.218,0.6,1.630,525060.0,0.377,525060.0,931.419,-1013.570,0.268
525152,2,525152,83,0.136,0.57,0.363,8.959,16.866,47.588,0.32,0.20,0.32,-459.0,11.813,90632.320,932.44,-261827.359,0.7,3.537,525143.0,0.348,525143.0,930.813,-979.454,0.235
525236,2,525236,84,0.122,0.43,0.434,8.535,16.778,47.749,0.26,0.29,0.25,-459.0,11.826,90633.359,931.513,-261858.93,0.6,1.653,525226.0,0.391,525226.0,931.344,-1013.257,0.282
525323,2,525323,87,0.279,0.172,0.413,9.339,16.954,47.559,0.25,0.25,0.14,-459.0,11.826,90619.640,931.116,-261892.578,0.1,2.128,525314.0,0.391,525314.0,931.230,-1002.227,0.268
525406,2,525406,83,0.165,0.50,0.348,8.842,16.559,47.924,0.27,0.29,0.29,-459.0,11.822,90628.789,931.627,-261925.703,0.2,2.232,525397.0,0.406,525397.0,931.41,-1000.122,0.226
525499,2,525499,93,0.14,0.21,0.456,8.491,16.691,47.339,0.28,0.16,0.35,-459.0,11.813,90627.750,931.722,-261961.812,0.2,1.841,525490.0,0.370,525490.0,931.230,-1008.719,0.296
525588,2,525588,89,0.43,0.0,0.413,8.433,16.369,47.573,0.27,0.14,0.41,-459.0,11.817,90627.750,931.324,-261998.281,0.6,1.622,525579.0,0.449,525579.0,931.836,-1014.72,0.268
525671,2,525671,83,0.57,0.0,0.406,9.295,16.895,47.895,0.25,0.16,0.13,-459.0,11.817,90626.500,932.44,-262032.0,0.14,-3.694,525662.0,0.363,525662.0,930.623,-977.833,0.263
525754,2,525754,83,0.129,0.208,0.391,8.886,16.881,47.544,0.22,0.21,0.25,-459.0,11.817,90628.789,931.230,-262063.921,0.3,1.755,525745.0,0.406,525745.0,930.946,-1010.290,0.254
525842,2,525842,88,0.150,0.86,0.363,9.587,17.465,47.661,0.26,0.28,0.24,-459.0,11.822,90625.250,931.438,-262100.609,0.2,1.840,525833.0,0.427,525833.0,931.135,-1008.324,0.235
525925,2,525925,83,0.43,0.21,0.413,9.412,16.749,47.749,0.28,0.26,0.25,-459.0,11.826,90624.210,931.438,-262136.406,0.8,1.581,525916.0,0.434,525916.0,931.855,-1014.993,0.268
526032,2,526032,107,0.129,0.21,0.384,9.953,17.56,47.603,0.24,0.16,0.27,-459.0,11.803,90625.882,930.774,-262177.937,0.5,3.537,526023.0,0.341,526023.0,931.249,-979.877,0.249
526122,2,526122,90,0.100,0.28,0.427,8.783,17.41,47.427,0.26,0.23,0.24,-459.0,11.808,90624.421,931.210,-262214.187,0.3,1.779,526113.0,0.463,526113.0,931.533,-1009.821,0.277
526205,2,526205,83,0.114,0.93,0.456,9.427,16.778,46.872,0.24,0.25,0.22,-459.0,11.817,90626.289,932.138,-262251.468,0.6,3.45,526196.0,0.434,526196.0,931.22,-986.353,0.296
526289,2,526289,84,0.107,0.14,0.492,8.959,17.114,47.427,0.28,0.28,0.29,-459.0,11.831,90620.890,931.533,-262286.62,0.7,3.544,526279.0,0.399,526279.0,930.415,-979.371,0.319
526376,2,526376,87,0.57,0.7,0.363,9.178,16.997,47.544,0.27,0.27,0.15,-459.0,11.826,90624.0,931.533,-262322.437,0.9,1.544,526367.0,0.427,526367.0,931.249,-1015.815,0.235
526459,2,526459,83,0.57,0.71,0.506,9.237,17.85,47.354,0.23,0.17,0.16,-459.0,11.822,90632.109,931.930,-262356.156,0.3,2.435,526450.0,0.384,526450.0,930.946,-995.565,0.329
526570,2,526570,111,0.165,0.122,0.470,9.397,16.515,48.70,0.23,0.20,0.23,-459.0,11.799,90625.671,931.513,-262402.31,0.4,1.661,526561.0,0.442,526561.0,931.457,-1013.464,0.305
526658,2,526658,88,0.208,0.7,0.384,9.280,17.304,47.559,0.27,0.25,0.28,-459.0,11.813,90631.289,931.438,-262441.875,0.6,3.218,526649.0,0.463,526649.0,930.908,-983.418,0.249
526741,2,526741,83,0.136,0.21,0.506,8.593,17.290,47.544,0.27,0.34,0.21,-459.0,11.817,90627.539,931.741,-262478.281,0.2,1.814,526732.0,0.413,526732.0,931.135,-1008.633,0.329
526824,2,526824,83,0.43,0.78,0.406,9.178,16.705,47.763,0.26,0.25,0.34,-459.0,11.817,90618.601,931.419,-262512.0,0.1,1.897,526815.0,0.399,526815.0,931.249,-1006.962,0.263
526913,2,526913,89,0.179,0.86,0.427,9.514,16.501,47.749,0.28,0.34,0.30,-459.0,11.826,90628.578,931.855,-262547.187,0.4,2.715,526904.0,0.391,526904.0,930.832,-991.689,0.277
526996,2,526996,83,0.35,0.43,0.406,9.280,16.486,47.573,0.28,0.25,0.28,-459.0,11.826,90625.250,931.135,-262580.312,0.5,1.705,526987.0,0.406,526987.0,931.249,-1012.178,0.263
527090,2,527090,94,0.222,0.93,0.420,9.251,16.793,47.603,0.26,0.31,0.17,-459.0,11.822,90627.750,931.324,-262617.812,0.2,1.828,527081.0,0.391,527081.0,931.457,-1007.807,0.273
527178,2,527178,88,0.114,0.0,0.420,8.433,16.924,47.369,0.30,0.31,0.21,-459.0,11.813,90628.578,931.116,-262653.875,0.2,2.294,527169.0,0.427,527169.0,931.230,-998.820,0.273
527261,2,527261,83,0.107,0.107,0.391,9.61,17.246,47.398,0.27,0.20,0.24,-459.0,11.817,90622.750,931.324,-262687.0,0.4,2.659,527252.0,0.370,527252.0,930.832,-992.12,0.254
527345,2,527345,84,0.78,0.93,0.449,9.529,16.822,47.471,0.24,0.23,0.26,-459.0,11.831,90627.539,931.647,-262720.718,0.6,1.653,527335.0,0.442,527335.0,931.363,-1012.725,0.291
527433,2,527433,88,0.122,0.35,0.406,8.491,16.924,47.252,0.25,0.14,0.26,-459.0,11.826,90622.960,931.230,-262757.500,0.1,1.913,527424.0,0.384,527424.0,931.457,-1006.587,0.263
527516,2,527516,83,0.150,0.0,0.463,8.827,16.252,47.646,0.27,0.24,0.37,-459.0,11.836,90629.609,931.666,-262791.812,0.6,1.652,527507.0,0.442,527507.0,931.989,-1012.840,0.301
527614,2,527614,98,0.172,0.71,0.391,9.353,16.559,47.924,0.25,0.30,0.23,-459.0,11.826,90622.140,931.96,-262831.968,0.7,4.833,527605.0,0.377,527605.0,931.249,-965.813,0.254
527697,2,527697,83,0.14,0.7,0.427,8.842,16.515,47.646,0.26,0.27,0.26,-459.0,11.822,90634.187,931.210,-262866.875,0.4,1.715,527688.0,0.463,527688.0,931.647,-1011.314,0.277
527780,2,527780,83,0.64,0.78,0.513,9.675,17.27,47.339,0.26,0.26,0.22,-459.0,11.826,90624.0,931.249,-262904.750,0.5,2.715,527771.0,0.449,527771.0,931.230,-991.293,0.333
527869,2,527869,89,0.21,0.86,0.391,9.90,16.661,47.442,0.31,0.15,0.26,-459.0,11.822,90626.289,931.230,-262945.375,0.2,1.814,527860.0,0.463,527860.0,931.457,-1008.736,0.254
527952,2,527952,83,0.129,0.50,0.413,9.573,16.296,47.793,0.29,0.19,0.25,-459.0,11.826,90630.859,931.324,-262985.62,0.2,2.261,527943.0,0.492,527943.0,931.249,-999.126,0.268
528035,2,528035,83,0.71,0.14,0.420,9.529,16.179,47.544,0.28,0.25,0.27,-459.0,11.826,90625.39,931.761,-263021.750,0.3,1.767,528026.0,0.391,528026.0,931.552,-1010.702,0.273
528151,2,528151,116,0.301,0.35,0.341,9.441,15.989,47.632,0.25,0.26,0.25,-459.0,11.803,90623.390,931.513,-263068.31,0.1,2.233,528142.0,0.406,528142.0,931.363,-1000.225,0.221
528234,2,528234,83,0.50,0.21,0.399,9.675,15.931,48.216,0.28,0.23,0.18,-459.0,11.813,90628.789,931.419,-263102.937,0.1,2.153,528225.0,0.434,528225.0,931.230,-1001.87,0.259
528317,2,528317,83,0.43,0.35,0.427,9.646,16.457,47.807,0.25,0.13,0.26,-459.0,11.822,90627.539,931.230,-263138.156,0.7,1.608,528308.0,0.413,528308.0,931.874,-1014.155,0.277
528406,2,528406,89,0.78,0.114,0.463,9.222,16.632,48.41,0.26,0.21,0.16,-459.0,11.817,90624.0,931.22,-263172.968,0.8,4.562,528396.0,0.377,528396.0,931.155,-968.350,0.301
528488,2,528488,82,0.215,0.28,0.341,8.462,16.617,47.442,0.27,0.21,0.40,-459.0,11.826,90625.250,931.438,-263204.906,0.4,2.519,528479.0,0.391,528479.0,930.813,-994.483,0.221
528571,2,528571,83,0.28,0.21,0.442,8.915,16.471,47.661,0.25,0.29,0.10,-459.0,11.831,90627.328,931.571,-263239.218,0.5,1.677,528562.0,0.434,528562.0,931.288,-1012.891,0.287
528671,2,528671,100,0.430,0.50,0.442,9.748,16.530,47.398,0.26,0.32,0.12,-459.0,11.817,90622.960,931.419,-263282.343,0.6,3.817,528662.0,0.427,528662.0,930.643,-976.213,0.287
528754,2,528754,83,0.179,0.21,0.355,9.134,16.559,47.603,0.31,0.15,0.35,-459.0,11.822,90619.640,931.855,-263314.562,0.9,1.551,528745.0,0.348,528745.0,931.457,-1016.262,0.231
528837,2,528837,83,0.157,0.35,0.420,9.280,16.398,47.953,0.30,0.19,0.22,-459.0,11.822,90629.828,931.249,-263345.593,0.8,4.562,528828.0,0.399,528828.0,930.738,-969.57,0.273
528925,2,528925,88,0.129,0.35,0.370,9.76,16.325,47.836,0.25,0.19,0.29,-459.0,11.831,90624.0,931.438,-263381.343,0.3,1.756,528916.0,0.413,528916.0,931.60,-1010.584,0.240
529008,2,529008,83,0.222,0.7,0.384,9.295,16.749,47.851,0.26,0.31,0.25,-459.0,11.831,90630.859,930.946,-263416.562,0.2,2.263,528999.0,0.434,528999.0,930.851,-999.396,0.249
529091,2,529091,83,0.78,0.71,0.370,9.807,16.632,47.749,0.29,0.23,0.32,-459.0,11.826,90631.898,931.438,-263449.375,0.5,1.705,529082.0,0.355,529082.0,931.269,-1012.64,0.240
529190,2,529190,99,0.57,0.43,0.370,9.134,16.559,47.646,0.25,0.27,0.9,-459.0,11.822,90631.70,931.135,-263487.468,0.2,2.263,529181.0,0.413,529181.0,931.60,-999.214,0.240
529273,2,529273,83,0.165,0.50,0.434,9.470,16.632,47.456,0.22,0.24,0.22,-459.0,11.831,90627.539,931.438,-263521.781,0.3,1.767,529264.0,0.413,529264.0,931.363,-1009.984,0.282
529356,2,529356,83,0.78,0.0,0.434,9.134,16.676,46.886,0.24,0.25,0.24,-459.0,11.831,90627.328,931.41,-263556.687,0.7,3.667,529347.0,0.427,529347.0,930.738,-978.34,0.282
529445,2,529445,89,0.165,0.35,0.413,8.725,16.778,47.486,0.28,0.23,0.32,-459.0,11.831,90624.0,931.457,-263595.593,0.4,1.696,529435.0,0.456,529435.0,931.174,-1011.395,0.268
529527,2,529527,82,0.208,0.165,0.355,9.324,16.442,47.617,0.27,0.26,0.15,-459.0,11.831,90626.289,931.552,-263632.0,0.5,2.774,529518.0,0.420,529518.0,930.738,-990.448,0.231
529610,2,529610,83,0.50,0.64,0.406,9.660,16.661,47.442,0.30,0.18,0.31,-459.0,11.831,90622.750,931.249,-263666.0,0.5,1.696,529601.0,0.399,529601.0,931.174,-1011.585,0.263
529709,2,529709,99,0.136,0.57,0.499,8.973,16.398,47.880,0.30,0.29,0.31,-459.0,11.831,90627.539,931.533,-263706.562,0.5,1.661,529700.0,0.420,529700.0,931.685,-1013.650,0.324
529792,2,529792,83,0.21,0.50,0.434,9.719,16.486,47.719,0.27,0.23,0.28,-459.0,11.822,90625.39,931.249,-263738.187,0.8,4.833,529783.0,0.341,529783.0,930.946,-966.77,0.282
529875,2,529875,83,0.165,0.43,0.399,9.120,17.27,47.544,0.25,0.23,0.22,-459.0,11.836,90622.750,930.623,-263775.187,0.1,2.104,529866.0,0.549,529866.0,930.851,-1002.594,0.259
529963,2,529963,88,0.150,0.14,0.363,9.251,16.574,47.179,0.29,0.30,0.32,-459.0,11.826,90634.187,931.249,-263815.656,0.4,2.713,529954.0,0.370,529954.0,930.435,-991.398,0.235
530046,2,530046,83,0.35,0.50,0.348,9.310,16.457,47.208,0.23,0.19,0.23,-459.0,11.836,90628.359,931.344,-263851.468,0.5,1.705,530037.0,0.492,530037.0,930.851,-1011.640,0.226
530129,2,530129,83,0.208,0.107,0.355,9.251,16.822,47.690,0.23,0.18,0.23,-491.0,11.826,90623.789,931.761,-263886.62,0.0,2.0,530120.0,0.341,530120.0,930.851,-1004.847,0.231
530245,2,530245,116,0.57,0.14,0.499,9.865,16.676,46.638,0.26,0.21,0.24,-459.0,11.817,90632.320,931.304,-263927.343,0.5,1.615,530236.0,0.370,530236.0,931.477,-1014.380,0.324
530328,2,530328,83,0.272,0.35,0.334,9.792,16.340,47.325,0.25,0.30,0.25,-459.0,11.822,90627.328,930.813,-263959.562,0.5,2.835,530319.0,0.406,530319.0,931.22,-989.189,0.217
530411,2,530411,83,0.21,0.78,0.348,9.32,16.486,47.486,0.27,0.21,0.24,-459.0,11.831,90626.289,931.135,-263992.687,0.0,1.962,530402.0,0.391,530402.0,931.60,-1005.152,0.226
530501,2,530501,90,0.222,0.78,0.456,9.280,16.267,47.632,0.28,0.20,0.17,-459.0,11.826,90630.859,931.647,-264032.31,0.0,2.0,530491.0,0.492,530491.0,931.60,-1004.654,0.296
530583,2,530583,82,0.7,0.14,0.399,8.857,16.749,47.237,0.25,0.19,0.27,-459.0,11.826,90628.359,931.457,-264068.437,0.7,3.667,530574.0,0.384,530574.0,930.435,-978.362,0.259
530666,2,530666,83,0.258,0.28,0.485,8.944,16.924,47.661,0.25,0.27,0.14,-459.0,11.840,90625.39,931.249,-264100.656,0.14,1.448,530657.0,0.391,530657.0,931.666,-1018.849,0.315
530765,2,530765,99,0.28,0.43,0.334,8.959,16.325,47.339,0.29,0.17,0.28,-459.0,11.817,90629.609,931.344,-264141.218,0.5,3.416,530756.0,0.427,530756.0,931.79,-981.698,0.217
530848,2,530848,83,0.330,0.107,0.449,9.573,16.340,47.617,0.25,0.25,0.21,-459.0,11.826,90625.39,931.761,-264176.437,0.4,1.725,530839.0,0.420,530839.0,931.457,-1011.748,0.291
530931,2,530931,83,0.107,0.57,0.348,9.427,16.705,47.135,0.23,0.36,0.25,-459.0,11.826,90623.789,931.666,-264211.656,0.2,1.827,530922.0,0.427,530922.0,931.666,-1009.348,0.226
531014,2,531014,83,0.43,0.64,0.456,9.646,16.574,46.989,0.26,0.14,0.28,-459.0,11.831,90636.265,931.457,-264279.937,0.2,2.232,531005.0,-1.217,531005.0,931.477,-1000.394,0.296
531097,2,531097,83,0.301,0.78,0.434,9.865,17.41,47.559,0.29,0.20,0.25,-459.0,11.845,90629.609,931.666,-264349.687,0.1,2.103,531088.0,0.463,531088.0,931.383,-1002.271,0.282
531180,2,531180,83,0.35,0.64,0.449,9.529,16.749,47.106,0.28,0.26,0.27,-459.0,11.840,90623.789,931.780,-264388.156,0.1,1.897,531171.0,0.463,531171.0,931.497,-1007.564,0.291
531272,2,531272,92,0.114,0.35,0.413,8.827,16.983,47.237,0.28,0.23,0.25,-459.0,11.831,90625.39,931.344,-264427.500,0.4,2.715,531263.0,0.391,531263.0,931.79,-991.483,0.268
531355,2,531355,83,0.222,0.50,0.413,9.660,17.41,47.793,0.22,0.26,0.19,-459.0,11.840,90625.39,931.363,-264460.31,0.0,2.19,531346.0,0.391,531346.0,931.60,-1004.216,0.268
531438,2,531438,83,0.86,0.50,0.427,9.953,16.778,47.471,0.28,0.23,0.25,-459.0,11.840,90628.359,932.197,-264493.750,0.1,2.104,531429.0,0.420,531429.0,930.965,-1002.278,0.277
531522,2,531522,84,0.78,0.14,0.420,10.245,16.544,47.369,0.28,0.25,0.23,-459.0,11.840,90625.867,931.60,-264527.156,0.2,2.234,531512.0,0.384,531512.0,930.776,-1000.55,0.273
531604,2,531604,82,0.64,0.100,0.399,9.149,16.661,47.603,0.26,0.27,0.24,-459.0,11.840,90617.960,931.685,-264559.968,0.4,1.715,531595.0,0.406,531595.0,931.174,-1012.13,0.259
531687,2,531687,83,0.64,0.157,0.449,9.500,16.691,47.646,0.25,0.14,0.26,-459.0,11.845,90628.359,931.155,-264592.187,0.1,1.897,531678.0,0.370,531678.0,931.288,-1007.70,0.291
531779,2,531779,92,0.244,0.50,0.449,9.412,16.924,47.983,0.22,0.25,0.22,-491.0,11.836,90632.937,931.457,-264628.562,0.4,2.715,531770.0,0.420,531770.0,930.871,-990.841,0.291
531862,2,531862,83,0.93,0.78,0.406,9.938,17.246,47.369,0.23,0.25,0.22,-459.0,11.836,90622.750,931.571,-264661.93,0.1,2.128,531853.0,0.363,531853.0,930.757,-1002.204,0.263
531945,2,531945,83,0.71,0.21,0.391,9.237,16.807,47.603,0.31,0.27,0.29,-459.0,11.840,90618.179,931.666,-264692.437,0.7,1.615,531936.0,0.391,531936.0,931.383,-1014.448,0.254
532028,2,532028,83,0.64,0.100,0.348,8.579,16.267,47.471,0.26,0.23,0.27,-491.0,11.836,90628.148,931.383,-264724.375,0.2,2.263,532019.0,0.377,532019.0,931.174,-999.54,0.226
532111,2,532111,83,0.157,0.43,0.434,8.842,17.334,47.252,0.26,0.20,0.23,-459.0,11.836,90628.148,931.874,-264756.312,0.2,1.827,532102.0,0.391,532102.0,931.383,-1008.86,0.282
532194,2,532194,83,0.107,0.57,0.477,9.675,16.720,47.135,0.23,0.23,0.21,-459.0,11.845,90622.539,931.363,-264790.906,0.3,2.476,532185.0,0.442,532185.0,931.60,-995.837,0.310
532304,2,532304,110,0.71,0.14,0.442,8.754,16.676,47.749,0.29,0.28,0.25,-459.0,11.822,90631.70,931.741,-264838.343,0.7,1.539,532295.0,0.420,532295.0,931.913,-1016.270,0.287
532387,2,532387,83,0.43,0.78,0.363,9.543,16.691,47.296,0.28,0.24,0.23,-459.0,11.831,90625.39,931.249,-264873.843,0.12,-15.205,532378.0,0.434,532378.0,930.851,-915.517,0.235
532470,2,532470,83,0.165,0.50,0.355,9.587,16.617,47.778,0.22,0.25,0.17,-459.0,11.831,90628.359,931.155,-264912.31,0.6,1.653,532461.0,0.485,532461.0,931.383,-1013.650,0.231
532553,2,532553,83,0.165,0.86,0.442,8.725,16.574,47.646,0.24,0.22,0.21,-459.0,11.831,90628.148,931.780,-264947.93,0.0,2.0,532543.0,0.370,532543.0,931.383,-1004.223,0.287
532635,2,532635,82,0.114,0.64,0.399,8.857,17.41,47.573,0.27,0.23,0.25,-459.0,11.840,90630.437,931.989,-264979.312,0.0,2.0,532626.0,0.406,532626.0,931.383,-1004.525,0.259
532718,2,532718,83,0.28,0.122,0.442,9.207,16.807,47.690,0.27,0.25,0.27,-459.0,11.840,90625.867,931.571,-265012.125,0.6,3.48,532709.0,0.384,532709.0,930.871,-986.383,0.287
532812,2,532812,94,0.107,0.64,0.420,9.61,17.100,47.266,0.25,0.16,0.23,-459.0,11.840,90622.539,930.832,-265046.250,0.1,1.898,532803.0,0.341,532803.0,930.984,-1006.525,0.273
532895,2,532895,83,0.21,0.21,0.370,9.514,16.691,47.456,0.25,0.21,0.21,-459.0,11.836,90632.726,931.666,-265078.781,0.5,2.770,532886.0,0.442,532886.0,930.549,-990.674,0.240
532978,2,532978,83,0.43,0.71,0.463,9.500,16.617,47.749,0.26,0.16,0.29,-459.0,11.836,90624.828,931.383,-265114.281,0.8,1.574,532969.0,0.413,532969.0,931.288,-1015.547,0.301
533060,2,533060,82,0.100,0.14,0.363,8.667,16.997,47.179,0.27,0.21,0.28,-459.0,11.840,90627.117,931.174,-265146.406,0.7,1.622,533051.0,0.370,533051.0,931.894,-1014.155,0.235
533143,2,533143,83,0.35,0.86,0.391,9.324,16.515,47.252,0.24,0.24,0.24,-459.0,11.845,90624.828,931.174,-265177.750,0.13,-7.449,533134.0,0.384,533134.0,930.776,-946.278,0.254
533226,2,533226,83,0.78,0.78,0.341,9.675,16.749,47.62,0.25,0.29,0.25,-459.0,11.845,90622.539,931.60,-265213.250,0.0,1.980,533217.0,0.470,533217.0,930.796,-1005.781,0.221
533319,2,533319,93,0.43,0.57,0.434,9.690,16.793,47.47,0.23,0.20,0.16,-459.0,11.845,90625.39,931.761,-265253.31,0.1,1.914,533310.0,0.384,533310.0,930.890,-1006.786,0.282
533402,2,533402,83,0.57,0.0,0.384,9.646,16.749,46.843,0.24,0.19,0.18,-459.0,11.836,90624.828,931.477,-265287.625,0.0,2.19,533393.0,0.449,533393.0,930.871,-1004.97,0.249
533485,2,533485,83,0.122,0.50,0.355,9.836,16.267,47.413,0.24,0.19,0.22,-459.0,11.840,90623.789,931.269,-265320.437,0.5,1.705,533476.0,0.341,533476.0,931.288,-1011.845,0.231
533568,2,533568,83,0.86,0.71,0.348,9.470,16.822,47.149,0.29,0.23,0.22,-459.0,11.845,90620.39,930.965,-265349.31,0.5,2.715,533558.0,0.355,533558.0,930.871,-991.49,0.226
533650,2,533650,82,0.114,0.114,0.485,8.564,17.129,47.719,0.23,0.24,0.21,-459.0,11.854,90623.578,931.685,-265383.625,0.1,1.882,533641.0,0.477,533641.0,931.4,-1007.171,0.315
533733,2,533733,83,0.179,0.7,0.334,9.792,16.837,47.76,0.22,0.21,0.21,-459.0,11.850,90632.515,931.799,-265418.843,0.3,1.767,533724.0,0.370,533724.0,931.307,-1010.464,0.217
533826,2,533826,93,0.208,0.28,0.399,9.675,16.778,47.705,0.24,0.20,0.24,-459.0,11.845,90625.867,931.571,-265455.968,0.2,2.263,533817.0,0.427,533817.0,931.99,-999.468,0.259
533909,2,533909,83,0.150,0.21,0.377,10.172,16.530,47.266,0.26,0.21,0.24,-459.0,11.840,90630.437,931.571,-265490.562,0.1,2.129,533900.0,0.406,533900.0,930.984,-1002.93,0.245
533992,2,533992,83,0.150,0.57,0.377,9.47,16.793,47.442,0.30,0.22,0.27,-459.0,11.850,90626.898,930.851,-265522.500,0.2,1.840,533983.0,0.363,533983.0,931.174,-1008.283,0.245
534074,2,534074,82,0.122,0.43,0.420,9.163,16.208,47.603,0.28,0.23,0.28,-459.0,11.850,90625.648,931.383,-265552.875,0.5,1.705,534065.0,0.377,534065.0,931.591,-1011.814,0.273
534157,2,534157,83,3.237,4.314,16.750,9.120,16.968,48.158,0.24,0.12,0.34,-459.0,11.845,90630.226,931.591,-265039.937,0.4,2.660,534148.0,12.737,534148.0,931.193,-992.236,10.877
534240,2,534240,83,0.86,0.35,0.363,9.777,16.997,47.398,0.26,0.19,0.25,-459.0,11.845,90628.148,931.705,-264528.781,0.2,1.827,534231.0,0.420,534231.0,931.402,-1009.323,0.235
534350,2,534350,110,0.86,0.107,0.434,9.32,16.749,46.886,0.27,0.22,0.21,-459.0,11.831,90624.0,931.647,-264572.687,0.2,2.476,534341.0,0.377,534341.0,931.79,-995.244,0.282
534433,2,534433,83,0.107,0.21,0.420,9.938,17.129,47.91,0.23,0.29,0.18,-459.0,11.836,90625.39,931.363,-264607.281,0.5,1.705,534424.0,0.456,534424.0,931.497,-1011.323,0.273
534516,2,534516,83,0.93,0.50,0.449,9.514,16.822,47.223,0.28,0.29,0.19,-459.0,11.836,90628.148,931.155,-264645.468,0.0,2.0,534507.0,0.463,534507.0,931.497,-1004.829,0.291
534600,2,534600,84,0.157,0.21,0.485,9.178,16.910,47.18,0.27,0.32,0.19,-459.0,11.845,90626.898,931.60,-264680.968,0.7,3.671,534590.0,0.391,534590.0,930.871,-977.984,0.315
534682,2,534682,82,0.50,0.64,0.420,9.690,16.384,47.3,0.28,0.24,0.26,-459.0,11.845,90628.148,930.965,-264715.562,0.3,2.395,534673.0,0.442,534673.0,930.587,-996.882,0.273
534765,2,534765,83,0.43,0.71,0.384,9.821,17.217,46.916,0.25,0.27,0.27,-459.0,11.850,90625.867,931.383,-264750.468,0.13,1.468,534756.0,0.399,534756.0,931.724,-1018.533,0.249
534858,2,534858,93,0.14,0.129,0.399,8.959,16.617,46.755,0.22,0.18,0.20,-459.0,11.840,90622.539,930.946,-264789.593,0.6,3.668,534849.0,0.442,534849.0,931.99,-977.810,0.259
534941,2,534941,83,0.43,0.93,0.485,9.105,16.340,47.427,0.25,0.28,0.20,-459.0,11.840,90627.117,931.685,-264826.0,0.0,2.19,534932.0,0.434,534932.0,931.79,-1004.81,0.315
535024,2,535024,83,0.114,0.43,0.341,9.251,16.764,47.325,0.27,0.23,0.17,-459.0,11.845,90621.289,931.383,-264860.906,0.4,2.659,535015.0,0.406,535015.0,930.682,-992.377,0.221
535107,2,535107,83,0.200,0.21,0.348,9.310,16.457,47.369,0.25,0.26,0.24,-459.0,11.850,90626.898,931.591,-264895.218,0.5,1.705,535098.0,0.420,535098.0,931.99,-1012.652,0.226
535190,2,535190,83,0.157,0.28,0.399,8.973,16.501,46.872,0.26,0.23,0.19,-459.0,11.850,90624.617,930.871,-264932.812,0.5,1.705,535181.0,0.485,535181.0,931.515,-1011.909,0.259
535273,2,535273,83,0.287,0.14,0.470,9.383,16.369,47.164,0.26,0.30,0.23,-459.0,11.845,90629.187,931.383,-264969.812,0.5,2.714,535264.0,0.406,535264.0,931.99,-991.593,0.305
535365,2,535365,92,0.64,0.93,0.442,9.733,16.764,46.959,0.26,0.24,0.25,-459.0,11.845,90622.539,930.871,-265008.843,0.0,2.0,535356.0,0.442,535356.0,931.99,-1005.12,0.287
535448,2,535448,83,0.28,0.14,0.399,9.733,16.705,47.281,0.26,0.24,0.29,-459.0,11.845,90624.828,932.197,-265045.843,0.2,2.263,535439.0,0.449,535439.0,930.890,-999.887,0.259
535531,2,535531,83,0.150,0.86,0.456,9.719,16.77,47.676,0.25,0.22,0.24,-459.0,11.854,90621.289,931.989,-265080.156,0.2,1.827,535522.0,0.377,535522.0,931.99,-1008.796,0.296
535615,2,535615,84,0.143,0.35,0.391,9.120,16.793,46.872,0.26,0.22,0.21,-459.0,11.854,90627.937,931.174,-265115.968,0.6,3.46,535605.0,0.485,535605.0,930.587,-986.190,0.254
535697,2,535697,82,0.208,0.28,0.384,8.272,16.647,47.559,0.28,0.26,0.17,-459.0,11.854,90630.15,931.288,-265153.562,0.1,1.913,535688.0,0.420,535688.0,930.682,-1006.777,0.249
535780,2,535780,83,0.114,0.71,0.377,8.637,17.187,46.711,0.27,0.29,0.21,-459.0,11.854,90629.187,931.174,-265191.156,0.3,1.756,535771.0,0.485,535771.0,931.4,-1010.529,0.245
535879,2,535879,99,0.93,0.93,0.384,8.973,16.325,47.310,0.27,0.25,0.24,-491.0,11.840,90626.78,931.363,-265236.687,0.3,2.474,535870.0,0.434,535870.0,930.682,-995.234,0.249
535962,2,535962,83,0.78,0.100,0.384,9.149,16.588,46.930,0.26,0.20,0.23,-459.0,11.845,90624.828,931.571,-265270.687,0.9,1.557,535953.0,0.384,535953.0,931.477,-1015.733,0.249
536045,2,536045,83,0.122,0.14,0.427,8.930,16.866,46.843,0.27,0.18,0.25,-459.0,11.850,90628.976,930.984,-265305.0,0.8,4.132,536036.0,0.442,536036.0,930.796,-973.376,0.277
536128,2,536128,83,0.100,0.7,0.506,9.602,17.158,47.135,0.27,0.25,0.24,-459.0,11.864,90625.867,930.757,-265340.500,0.12,1.494,536119.0,0.413,536119.0,931.818,-1018.50,0.329
536211,2,536211,83,0.208,1.801,0.370,9.178,17.56,47.223,0.27,0.25,0.24,-459.0,11.859,90622.328,931.610,-265374.812,0.9,6.377,536202.0,0.413,536202.0,931.4,-953.652,0.240
536294,2,536294,83,0.93,0.0,0.370,9.324,16.749,47.208,0.27,0.30,0.28,-459.0,11.859,90625.648,931.705,-265407.343,0.0,2.20,536285.0,0.370,536285.0,930.984,-1004.696,0.240
536405,2,536405,111,0.0,0.43,0.427,9.324,16.691,47.208,0.25,0.23,0.24,-459.0,11.831,90625.39,931.230,-265453.625,0.4,1.653,536396.0,0.463,536396.0,931.515,-1013.737,0.277
536488,2,536488,83,0.86,0.50,0.449,9.222,16.457,47.953,0.25,0.23,0.18,-459.0,11.845,90624.0,931.552,-265492.93,0.6,3.221,536479.0,0.463,536479.0,930.965,-983.421,0.291
536571,2,536571,83,0.86,0.21,0.420,9.178,16.895,47.296,0.27,0.21,0.25,-459.0,11.850,90625.867,931.174,-265528.500,0.8,1.574,536562.0,0.413,536562.0,931.705,-1015.867,0.273
536654,2,536654,83,0.71,1.816,0.384,9.251,16.676,47.617,0.26,0.27,0.24,-459.0,11.845,90623.578,930.757,-265560.31,0.0,2.0,536644.0,0.355,536644.0,931.705,-1004.929,0.249
536736,2,536736,82,0.64,0.14,0.442,9.397,16.544,47.193,0.29,0.24,0.30,-459.0,11.859,90627.937,931.780,-265588.968,0.2,2.233,536727.0,0.341,536727.0,931.515,-999.853,0.287
536819,2,536819,83,0.114,0.14,0.413,8.754,16.325,47.252,0.27,0.25,0.32,-459.0,11.854,90634.796,931.705,-265621.187,0.10,6.997,536810.0,0.434,536810.0,930.682,-950.380,0.268
536913,2,536913,94,0.93,0.107,0.463,8.857,16.559,46.784,0.27,0.20,0.30,-459.0,11.845,90629.398,931.477,-265657.343,0.5,1.661,536904.0,0.334,536904.0,931.193,-1012.455,0.301
536996,2,536996,83,0.86,0.28,0.370,9.295,16.617,46.828,0.24,0.21,0.29,-459.0,11.850,90621.289,931.497,-265688.687,0.5,1.705,536987.0,0.420,536987.0,931.610,-1011.639,0.240
537079,2,537079,83,0.7,0.136,0.456,8.783,16.544,46.901,0.25,0.21,0.23,-459.0,11.850,90628.148,931.193,-265719.437,0.11,14.979,537070.0,0.320,537070.0,930.682,-916.252,0.296
537161,2,537161,82,0.114,0.28,0.463,9.529,16.340,47.559,0.25,0.21,0.23,-459.0,11.845,90630.15,930.871,-265749.218,0.6,1.653,537152.0,0.406,537152.0,931.213,-1013.193,0.301
537244,2,537244,83,0.71,0.100,0.442,9.237,16.281,46.857,0.26,0.21,0.24,-459.0,11.854,90624.617,931.799,-265784.437,0.1,2.104,537235.0,0.442,537235.0,931.118,-1002.364,0.287
537430,2,537430,186,0.107,0.64,0.477,9.120,16.296,47.164,0.26,0.21,0.29,-459.0,11.845,90624.851,931.58,-266275.437,0.3,1.767,537318.0,-11.389,537318.0,931.421,-1010.665,0.310
537523,2,537523,93,0.64,0.114,0.399,9.47,16.778,46.828,0.27,0.20,0.23,-459.0,11.808,90625.460,931.304,-267426.468,0.1,1.768,537514.0,0.355,537514.0,931.722,-1010.175,0.259
537606,2,537606,83,0.93,0.186,0.399,9.266,16.837,47.266,0.24,0.22,0.17,-459.0,11.826,90626.289,931.249,-267459.281,0.9,5.464,537597.0,0.434,537597.0,930.946,-959.772,0.259
537690,2,537690,84,0.86,0.64,0.470,9.368,16.895,46.872,0.22,0.19,0.19,-459.0,11.845,90620.250,931.666,-267495.93,0.0,2.81,537680.0,0.427,537680.0,930.871,-1003.166,0.305
537771,2,537771,81,0.57,0.50,0.406,8.944,16.793,47.33,0.25,0.22,0.21,-459.0,11.850,90630.437,931.174,-267529.593,0.0,2.80,537762.0,0.413,537762.0,930.796,-1002.855,0.263
537854,2,537854,83,0.28,0.78,0.434,8.915,16.997,46.696,0.27,0.20,0.20,-459.0,11.854,90630.226,931.363,-267561.531,0.0,2.0,537845.0,0.355,537845.0,930.796,-1004.605,0.282
537937,2,537937,83,0.43,0.14,0.434,9.777,16.501,46.653,0.26,0.27,0.16,-459.0,11.850,90634.796,931.79,-267596.125,0.6,1.661,537928.0,0.477,537928.0,931.307,-1013.186,0.282
538030,2,538030,93,0.93,0.122,0.492,9.675,16.807,46.930,0.24,0.27,0.17,-459.0,11.850,90635.15,930.757,-267635.906,0.4,2.715,538021.0,0.377,538021.0,930.890,-991.481,0.319
538113,2,538113,83,0.21,-1.837,0.434,9.617,16.632,47.179,0.26,0.27,0.30,-459.0,11.854,90627.937,931.705,-267667.843,0.1,1.897,538104.0,0.391,538104.0,931.4,-1007.25,0.282
538196,2,538196,83,0.50,0.0,0.449,10.40,16.559,46.989,0.29,0.20,0.33,-459.0,11.850,90627.937,931.591,-267700.656,0.2,1.827,538187.0,0.399,538187.0,931.213,-1008.993,0.291
538278,2,538278,82,0.122,0.71,0.456,9.792,16.968,46.901,0.23,0.24,0.16,-459.0,11.854,90621.78,931.288,-267735.718,0.5,1.705,538269.0,0.456,538269.0,931.630,-1011.615,0.296
538361,2,538361,83,0.93,0.43,0.384,9.47,16.866,46.901,0.27,0.25,0.29,-459.0,11.859,90627.937,931.402,-267769.718,0.2,2.263,538352.0,0.363,538352.0,931.421,-999.52,0.249
538444,2,538444,83,0.50,0.7,0.399,9.543,16.369,47.456,0.25,0.30,0.26,-459.0,11.854,90628.976,930.984,-267803.718,0.6,3.132,538435.0,0.456,538435.0,930.890,-984.530,0.259
538558,2,538558,114,0.150,0.7,0.399,9.310,16.340,47.339,0.27,0.35,0.28,-459.0,11.836,90621.500,931.780,-267852.875,0.1,1.814,538549.0,0.406,538549.0,931.118,-1008.717,0.259
538641,2,538641,83,0.50,0.172,0.391,9.470,16.501,46.799,0.28,0.20,0.26,-459.0,11.845,90633.765,930.851,-267884.812,0.0,1.930,538632.0,0.363,538632.0,931.193,-1006.281,0.254
538725,2,538725,84,0.129,0.43,0.427,9.193,16.837,46.901,0.27,0.23,0.25,-459.0,11.854,90625.867,931.383,-267917.343,0.2,1.827,538715.0,0.420,538715.0,931.402,-1008.797,0.277
538807,2,538807,82,0.193,0.93,0.477,9.280,16.384,46.959,0.30,0.25,0.24,-459.0,11.859,90631.476,932.27,-267949.281,0.5,1.706,538798.0,0.348,538798.0,931.818,-1012.322,0.310
538890,2,538890,83,0.150,0.28,0.399,8.900,16.486,46.886,0.25,0.29,0.25,-459.0,11.845,90632.304,931.174,-267979.406,0.4,2.657,538881.0,0.377,538881.0,931.421,-992.174,0.259
538973,2,538973,83,0.21,0.143,0.413,8.564,16.281,46.740,0.23,0.28,0.19,-459.0,11.850,90626.687,931.402,-268011.31,0.6,3.132,538964.0,0.384,538964.0,930.890,-984.936,0.268
539066,2,539066,93,0.86,0.78,0.463,8.769,16.223,47.18,0.22,0.21,0.19,-459.0,11.854,90631.476,931.174,-268048.468,0.2,2.232,539057.0,0.420,539057.0,930.701,-1000.377,0.301
539149,2,539149,83,0.122,0.7,0.427,9.61,16.427,46.506,0.29,0.18,0.20,-459.0,11.854,90628.976,931.799,-268083.687,0.6,1.661,539140.0,0.427,539140.0,931.213,-1013.809,0.277
539232,2,539232,83,0.78,0.7,0.442,9.222,16.632,46.711,0.25,0.22,0.25,-459.0,11.859,90625.648,930.776,-268118.281,0.3,2.476,539223.0,0.406,539223.0,930.890,-995.313,0.287
539315,2,539315,83,0.179,0.14,0.355,8.23,15.960,46.930,0.26,0.23,0.29,-459.0,11.854,90625.648,931.193,-268153.781,0.2,2.232,539306.0,0.449,539306.0,930.701,-999.645,0.231
539398,2,539398,83,0.265,0.28,0.413,8.9,16.340,46.492,0.26,0.29,0.22,-459.0,11.859,90628.976,931.591,-268189.281,0.7,1.622,539389.0,0.406,539389.0,931.307,-1014.111,0.268
539481,2,539481,83,0.323,0.7,0.449,8.754,16.398,46.740,0.30,0.31,0.31,-459.0,11.854,90625.437,931.4,-268223.875,0.2,2.233,539472.0,0.427,539472.0,931.118,-999.623,0.291
539573,2,539573,92,0.86,0.157,0.399,8.579,16.515,46.974,0.28,0.27,0.19,-459.0,11.859,90625.648,931.894,-268264.562,0.3,1.756,539564.0,0.456,539564.0,931.440,-1010.728,0.259
539656,2,539656,83,0.50,0.229,0.406,8.842,16.91,46.945,0.22,0.26,0.13,-459.0,11.859,90626.898,931.610,-268303.625,0.4,2.519,539647.0,0.485,539647.0,931.99,-994.854,0.263
539740,2,539740,84,0.50,0.200,0.449,9.529,16.296,46.740,0.19,0.24,0.14,-459.0,11.864,90624.398,931.307,-268342.687,0.2,1.827,539730.0,0.456,539730.0,931.307,-1008.876,0.291
539823,2,539823,83,0.107,0.107,0.391,8.667,16.252,46.813,0.24,0.21,0.12,-459.0,11.864,90620.39,930.587,-268382.250,0.2,2.233,539814.0,0.485,539814.0,931.118,-1000.61,0.254
539906,2,539906,83,0.78,0.14,0.341,8.111,16.837,47.76,0.27,0.24,0.25,-459.0,11.864,90624.187,931.307,-268419.250,0.0,2.0,539897.0,0.406,539897.0,931.118,-1005.92,0.221
539989,2,539989,83,0.107,0.57,0.341,9.353,16.267,47.252,0.27,0.23,0.24,-459.0,11.864,90624.398,932.140,-268454.156,0.3,1.767,539980.0,0.434,539980.0,931.421,-1010.155,0.221
540081,2,540081,92,0.136,0.0,0.334,8.199,16.632,47.179,0.28,0.20,0.32,-459.0,11.850,90630.226,931.591,-268492.531,0.1,1.897,540072.0,0.399,540072.0,931.535,-1007.545,0.217
540164,2,540164,83,0.136,0.28,0.312,8.564,16.194,47.179,0.28,0.25,0.36,-459.0,11.850,90626.687,931.705,-268524.156,0.5,2.715,540155.0,0.363,540155.0,931.118,-991.126,0.203
540247,2,540247,83,0.150,0.57,0.391,8.900,16.208,47.456,0.29,0.23,0.29,-459.0,11.859,90624.398,931.99,-268555.781,0.2,1.827,540238.0,0.399,540238.0,931.326,-1008.881,0.254
540330,2,540330,83,0.179,0.78,0.434,8.637,16.515,47.179,0.30,0.24,0.34,-459.0,11.864,90632.304,931.307,-268588.593,0.1,1.913,540321.0,0.391,540321.0,931.421,-1006.118,0.282
540413,2,540413,83,0.157,0.165,0.413,8.593,16.617,47.500,0.25,0.29,0.24,-459.0,11.859,90627.726,930.890,-268623.812,0.12,-42.343,540404.0,0.456,540404.0,930.398,-870.146,0.268
540599,2,540599,186,0.86,0.21,0.456,9.149,16.734,47.369,0.25,0.19,0.26,-459.0,11.868,90631.710,931.797,-270355.0,0.7,1.615,540487.0,-41.258,540487.0,931.24,-1014.307,0.296
540714,2,540714,115,0.179,0.43,0.449,8.681,16.734,46.959,0.28,0.25,0.30,-459.0,11.808,90625.460,930.813,-274897.281,0.1,1.768,540705.0,0.413,540705.0,931.324,-1010.173,0.291
540798,2,540798,84,0.43,0.157,0.477,8.754,16.471,47.617,0.30,0.23,0.27,-459.0,11.831,90629.398,931.457,-274930.687,0.12,-302.409,540788.0,0.391,540788.0,930.321,-783.844,0.310
540880,2,540880,82,0.57,0.129,0.384,8.783,16.413,46.916,0.23,0.24,0.14,-459.0,11.845,90628.148,931.989,-274963.812,0.6,1.637,540871.0,0.406,540871.0,930.890,-1013.638,0.249
540968,2,540968,88,0.43,0.172,0.463,8.973,16.398,46.740,0.24,0.25,0.17,-459.0,11.850,90631.265,931.799,-275000.500,0.6,1.622,540959.0,0.427,540959.0,931.497,-1013.715,0.301
541051,2,541051,83,0.64,0.28,0.391,8.842,16.647,46.828,0.24,0.21,0.24,-459.0,11.850,90621.78,931.402,-275038.93,0.5,2.970,541042.0,0.477,541042.0,931.4,-987.598,0.254
541134,2,541134,83,0.200,0.64,0.391,8.871,16.486,46.945,0.26,0.21,0.26,-459.0,11.859,90617.750,931.174,-275075.687,0.3,1.756,541125.0,0.427,541125.0,931.326,-1010.539,0.254
541234,2,541234,100,0.21,0.114,0.434,8.667,16.632,47.252,0.29,0.31,0.31,-459.0,11.854,90625.867,931.383,-275117.375,0.4,2.774,541225.0,0.406,541225.0,930.890,-989.578,0.282
541317,2,541317,83,0.28,0.100,0.370,9.237,16.647,46.696,0.25,0.29,0.23,-459.0,11.854,90627.937,931.685,-275152.875,0.6,1.661,541308.0,0.449,541308.0,931.402,-1013.813,0.240
541400,2,541400,83,0.64,0.136,0.427,8.477,16.471,47.135,0.26,0.18,0.17,-459.0,11.854,90627.937,931.288,-275189.875,0.3,2.435,541391.0,0.442,541391.0,931.99,-996.20,0.277
541488,2,541488,88,0.50,0.50,0.384,9.193,16.369,46.638,0.25,0.22,0.13,-459.0,11.854,90624.398,931.610,-275229.406,0.2,2.232,541479.0,0.456,541479.0,930.910,-1000.170,0.249
541571,2,541571,83,0.143,0.43,0.463,8.769,16.705,46.550,0.25,0.22,0.25,-459.0,11.854,90627.937,931.307,-275265.218,0.1,1.913,541562.0,0.406,541562.0,931.4,-1006.639,0.301
541654,2,541654,83,0.122,0.28,0.348,8.579,16.150,46.886,0.26,0.25,0.25,-459.0,11.859,90622.117,931.193,-275297.750,0.2,1.827,541645.0,0.377,541645.0,931.213,-1008.573,0.226
541753,2,541753,99,0.35,0.35,0.377,8.959,16.296,46.916,0.27,0.20,0.34,-459.0,11.850,90624.617,931.705,-275336.187,0.7,4.569,541744.0,0.399,541744.0,930.493,-967.819,0.245
541837,2,541837,84,0.150,0.50,0.391,8.754,16.676,47.369,0.27,0.20,0.23,-459.0,11.850,90630.226,931.307,-275366.625,0.7,1.615,541827.0,0.334,541827.0,931.118,-1015.47,0.254
541919,2,541919,82,0.107,0.21,0.341,8.710,16.486,47.135,0.28,0.23,0.23,-459.0,11.859,90629.187,931.193,-275395.562,0.3,2.474,541910.0,0.363,541910.0,930.796,-995.526,0.221
542007,2,542007,88,0.100,0.64,0.442,8.374,16.252,47.325,0.29,0.25,0.25,-459.0,11.859,90627.937,931.818,-275429.718,0.2,1.814,541998.0,0.413,541998.0,931.24,-1009.288,0.287
542193,2,542193,186,0.86,0.64,0.434,9.61,16.179,47.310,0.28,0.26,0.22,-459.0,11.864,90625.882,930.963,-274701.687,0.4,1.715,542081.0,17.956,542081.0,931.421,-1011.669,0.282
542285,2,542285,92,0.28,0.14,0.348,8.462,16.734,46.696,0.27,0.23,0.24,-459.0,11.817,90626.500,931.22,-272991.937,0.2,2.977,542276.0,0.420,542276.0,930.927,-987.458,0.226
542374,2,542374,89,0.143,1.808,0.377,9.76,16.4,47.135,0.26,0.20,0.31,-459.0,11.840,90628.359,931.799,-273029.687,0.3,1.745,542365.0,0.427,542365.0,931.269,-1010.218,0.245
542457,2,542457,83,0.136,0.28,0.434,8.491,16.106,46.857,0.29,0.22,0.27,-459.0,11.854,90624.617,931.288,-273066.375,0.0,2.82,542448.0,0.456,542448.0,931.193,-1003.453,0.282
542540,2,542540,83,0.129,0.14,0.399,9.61,16.457,47.223,0.28,0.25,0.28,-459.0,11.854,90626.898,930.871,-273100.93,0.4,2.657,542531.0,0.355,542531.0,930.796,-991.890,0.259
542628,2,542628,88,0.272,0.43,0.463,9.3,16.237,47.208,0.24,0.29,0.25,-459.0,11.859,90626.687,931.193,-273136.781,0.4,1.705,542619.0,0.477,542619.0,931.213,-1012.33,0.301
542711,2,542711,83,0.21,0.71,0.377,9.47,16.135,47.413,0.26,0.25,0.26,-459.0,11.854,90630.15,931.307,-273174.375,0.0,2.0,542702.0,0.427,542702.0,931.213,-1004.914,0.245
542809,2,542809,98,0.200,0.93,0.334,9.324,16.296,47.164,0.25,0.22,0.25,-459.0,11.850,90625.867,931.269,-273221.906,0.2,2.263,542800.0,0.542,542800.0,931.4,-999.75,0.217
542904,2,542904,95,0.186,0.7,0.427,8.842,16.354,46.974,0.26,0.28,0.23,-459.0,11.836,90629.398,930.568,-273267.500,0.1,2.128,542894.0,0.427,542894.0,930.890,-1001.646,0.277
542986,2,542986,82,0.35,0.21,0.413,8.930,16.705,47.339,0.27,0.21,0.29,-459.0,11.854,90626.687,931.402,-273300.906,0.1,2.103,542977.0,0.377,542977.0,930.796,-1002.167,0.268
543069,2,543069,83,0.14,0.64,0.413,8.681,16.194,47.310,0.26,0.18,0.30,-459.0,11.859,90625.648,931.288,-273335.500,0.3,1.756,543060.0,0.456,543060.0,931.118,-1010.323,0.268
543156,2,543156,87,0.136,0.21,0.377,9.792,17.12,47.471,0.28,0.22,0.31,-459.0,11.859,90633.554,931.610,-273372.93,0.1,2.103,543147.0,0.384,543147.0,931.24,-1002.888,0.245
543239,2,543239,83,0.272,0.28,0.406,9.149,16.968,47.339,0.26,0.24,0.25,-459.0,11.859,90624.398,931.4,-273404.906,0.7,1.622,543230.0,0.406,543230.0,931.630,-1014.231,0.263
543349,2,543349,110,0.64,0.7,0.370,8.330,16.720,46.901,0.26,0.24,0.20,-459.0,11.840,90628.359,931.780,-273453.937,0.7,5.898,543340.0,0.485,543340.0,930.834,-957.413,0.240
