millis(),Current_state,Calculated_flight_time,Time_since_last_log,IMU_accel_X,IMU_accel_Y,IMU_accel_Z,IMU_mag_X,IMU_mag_Y,IMU_mag_Z,IMU_gyro_X,IMU_gyro_Y,IMU_gyro_Z,IMU_temp,Raw_IMU_accel_X,Raw_IMU_accel_Y,Raw_IMU_accel_Z,Raw_IMU_mag_X,Raw_IMU_mag_Y,Raw_IMU_mag_Z,Raw_IMU_gyro_X,Raw_IMU_gyro_Y,Raw_IMU_gyro_Z,Raw_IMU_temp,BARO_temp,BARO_press,BARO_alt,Raw_BARO_temp,Raw_BARO_press,Raw_BARO_alt,Velocity_lastUpdate,Velocity_lastZAccel,Velocity_lastAlt,Velocity_inte,Velocity_diff,Velocity_est,Est_apogee,Target_air_brake_angle,Air_brake_angle,Air_brake_error,Battery_voltage,Z_accel_times_burnoutMass
4328,2,4328,4328,0.169,0.2,0.318,8.895,-1.815,53.396,0.4,0.28,0.1,-363.0,0.143,0.179,0.384,9.193,-1.753,53.288,0.4,0.28,0.3,-363.0,16.386,92220.640,787.197,16.394,92222.125,787.352,4328,0.318,787.352,0.0,0.0,0.0,0.0,0.0,0.0,0.0,4.54,0.191
4377,2,4377,49,0.100,0.179,0.378,9.362,-1.552,53.332,0.4,0.28,0.2,-363.0,0.179,0.157,0.370,9.543,-1.198,53.259,0.5,0.27,0.0,-363.0,16.391,92221.453,787.206,16.398,92224.250,787.66,4377,0.378,787.66,-17090.183,-5.835,2.212,0.0,0.0,0.0,0.0,4.41,0.228
4419,2,4419,42,0.83,0.145,0.380,9.187,-1.540,53.393,0.4,0.28,0.3,-363.0,0.21,0.129,0.434,8.973,-1.227,53.726,0.3,0.30,0.6,-363.0,16.397,92221.812,787.237,16.412,92224.85,787.999,4419,0.380,787.999,-33035.339,22.210,1.600,0.0,0.0,0.0,0.0,4.41,0.229
4455,2,4455,36,0.80,0.155,0.377,9.134,-1.569,53.449,0.5,0.28,0.3,-363.0,0.57,0.193,0.341,9.456,-1.885,53.478,0.7,0.25,0.3,-363.0,16.402,92219.890,787.268,16.417,92211.414,786.478,4455,0.377,786.478,-46676.773,-42.251,-2.737,0.0,0.0,0.0,0.0,4.47,0.227
4497,2,4497,42,0.132,0.153,0.378,9.362,-1.473,53.507,0.5,0.27,0.4,-363.0,0.258,0.107,0.363,9.646,-1.300,53.785,0.6,0.27,0.8,-363.0,16.409,92220.671,787.321,16.426,92221.468,787.712,4497,0.378,787.712,-62561.632,29.392,1.531,0.0,0.0,0.0,0.0,4.47,0.228
4534,2,4534,37,0.137,0.147,0.384,9.500,-1.502,53.534,0.5,0.27,0.4,-363.0,0.172,0.150,0.413,9.880,-1.900,53.420,0.4,0.28,0.3,-363.0,16.417,92220.296,787.355,16.431,92220.242,787.521,4534,0.384,787.521,-76688.234,-5.163,2.183,0.0,0.0,0.0,0.0,4.60,0.231
4577,2,4577,43,0.140,0.130,0.410,9.383,-1.601,53.577,0.5,0.28,0.4,-363.0,0.193,0.71,0.499,8.959,-1.695,53.478,0.2,0.28,0.1,-363.0,16.423,92219.453,787.364,16.431,92220.78,787.109,4577,0.410,787.109,-93784.726,-9.578,2.403,0.0,0.0,0.0,0.0,4.47,0.247
4613,2,4613,36,0.173,0.126,0.403,9.438,-1.710,53.574,0.5,0.27,0.4,-363.0,0.186,0.107,0.399,9.251,-1.768,53.712,0.8,0.25,0.7,-363.0,16.429,92218.656,787.145,16.440,92220.78,786.903,4613,0.403,786.903,-108434.23,-5.711,2.206,0.0,0.0,0.0,0.0,4.47,0.242
4655,2,4655,42,0.203,0.104,0.403,9.356,-1.651,53.586,0.5,0.28,0.4,-363.0,0.208,0.86,0.341,9.47,-1.593,53.536,0.4,0.31,0.0,-363.0,16.435,92220.179,787.334,16.449,92219.15,787.426,4655,0.403,787.426,-125374.125,12.429,1.728,0.0,0.0,0.0,0.0,4.54,0.242
4691,2,4691,36,0.175,0.117,0.403,9.318,-1.669,53.548,0.5,0.27,0.3,-363.0,0.114,0.172,0.363,9.456,-1.388,53.595,0.5,0.25,0.6,-363.0,16.439,92219.203,787.154,16.444,92216.562,786.809,4691,0.403,786.809,-139894.203,-17.139,3.58,0.0,0.0,0.0,0.0,4.47,0.242
4734,2,4734,43,0.178,0.107,0.383,9.225,-1.634,53.598,0.5,0.27,0.3,-363.0,0.186,0.100,0.312,9.412,-1.724,53.668,0.6,0.27,0.0,-363.0,16.441,92218.734,787.30,16.440,92217.953,786.903,4734,0.383,786.903,-156805.500,2.208,1.937,0.0,0.0,0.0,0.0,4.47,0.230
4770,2,4770,36,0.155,0.120,0.350,9.351,-1.677,53.551,0.6,0.27,0.4,-363.0,0.78,0.136,0.334,9.587,-1.914,53.244,0.5,0.26,0.6,-363.0,16.443,92218.976,787.93,16.444,92221.304,787.426,4770,0.350,787.426,-170007.609,14.500,1.696,0.0,0.0,0.0,0.0,4.47,0.210
4812,2,4812,42,0.152,0.143,0.322,9.207,-1.669,53.574,0.5,0.27,0.4,-363.0,0.172,0.222,0.262,8.535,-1.724,53.829,0.3,0.25,0.7,-363.0,16.444,92219.226,787.198,16.444,92221.304,787.426,4812,0.322,787.426,-184143.796,0.0,2.0,0.0,0.0,0.0,0.0,4.60,0.194
4848,2,4848,36,0.155,0.160,0.327,9.242,-1.639,53.674,0.5,0.25,0.5,-363.0,0.222,0.172,0.363,9.222,-1.446,54.33,0.4,0.23,0.3,-363.0,16.442,92218.101,787.96,16.435,92213.375,786.919,4848,0.327,786.919,-195847.46,-14.80,2.731,0.0,0.0,0.0,0.0,4.47,0.197
4896,2,4896,48,0.149,0.146,0.327,9.380,-1.572,53.659,0.5,0.26,0.4,-363.0,0.86,0.100,0.363,10.143,-1.52,53.522,0.7,0.27,0.3,-363.0,16.440,92217.953,787.236,16.435,92215.828,787.506,4896,0.327,787.506,-211554.750,12.243,1.731,0.0,0.0,0.0,0.0,4.47,0.197
4939,2,4939,43,0.150,0.169,0.353,9.348,-1.446,53.645,0.5,0.25,0.6,-363.0,0.193,0.215,0.442,9.251,-1.96,53.595,0.4,0.24,0.9,-363.0,16.439,92218.414,787.337,16.435,92220.242,787.411,4939,0.353,787.411,-226181.843,-2.221,2.71,0.0,0.0,0.0,0.0,4.54,0.212
4975,2,4975,36,0.172,0.157,0.371,9.356,-1.356,53.671,0.5,0.25,0.5,-363.0,0.186,0.78,0.427,9.631,-1.461,53.376,0.4,0.25,0.3,-363.0,16.437,92218.203,787.312,16.435,92220.242,787.301,4975,0.371,787.301,-239228.906,-3.58,2.101,0.0,0.0,0.0,0.0,4.47,0.223
5017,2,5017,42,0.163,0.155,0.387,9.473,-1.277,53.621,0.5,0.25,0.4,-363.0,0.129,0.208,0.341,9.120,-1.330,53.580,0.5,0.24,0.4,-363.0,16.435,92217.523,787.348,16.435,92217.953,787.602,5017,0.387,787.602,-255174.62,7.170,1.822,0.0,0.0,0.0,0.0,4.60,0.233
5053,2,5053,36,0.160,0.132,0.396,9.628,-1.157,53.577,0.5,0.27,0.4,-363.0,0.208,0.57,0.406,9.997,0.847,53.814,0.5,0.34,0.2,-363.0,16.434,92217.101,787.427,16.431,92211.250,787.315,5053,0.396,787.315,-269280.656,-7.973,2.314,0.0,0.0,0.0,0.0,4.41,0.238
5096,2,5096,43,0.155,0.153,0.387,9.441,-1.166,53.677,0.5,0.27,0.4,-363.0,0.57,0.208,0.320,9.207,-1.96,54.19,0.6,0.27,0.3,-363.0,16.434,92218.203,787.468,16.435,92221.304,787.712,5096,0.387,787.712,-286130.218,9.237,1.783,0.0,0.0,0.0,0.0,4.47,0.233
5132,2,5132,36,0.155,0.139,0.364,9.511,-1.183,53.680,0.5,0.27,0.4,-363.0,0.193,0.143,0.327,9.602,-1.183,53.610,0.6,0.25,0.7,-363.0,16.433,92218.664,787.487,16.431,92222.531,787.506,5132,0.364,787.506,-299668.281,-5.713,2.206,0.0,0.0,0.0,0.0,4.54,0.219
5174,2,5174,42,0.225,0.145,0.354,9.456,0.961,53.855,0.6,0.27,0.5,-363.0,-1.715,0.107,0.377,9.353,0.350,54.253,0.6,0.26,0.9,-363.0,16.434,92217.773,787.531,16.440,92215.828,787.521,5174,0.354,787.521,-314769.250,0.348,1.989,0.0,0.0,0.0,0.0,4.54,0.213
5210,2,5210,36,0.218,0.133,0.354,9.508,0.885,54.13,0.5,0.28,0.5,-363.0,0.165,0.150,0.341,9.383,0.950,54.370,0.4,0.26,0.5,-363.0,16.433,92218.15,787.594,16.431,92219.179,787.918,5210,0.354,787.918,-327532.31,11.20,1.751,0.0,0.0,0.0,0.0,4.60,0.213
5253,2,5253,43,0.195,0.156,0.363,9.421,0.923,54.4,0.5,0.26,0.6,-363.0,0.323,0.172,0.449,9.558,-1.37,53.770,0.3,0.25,0.7,-363.0,16.434,92218.445,787.594,16.435,92213.375,787.315,5253,0.363,787.315,-342961.687,-14.21,2.726,0.0,0.0,0.0,0.0,4.47,0.218
5289,2,5289,36,0.196,0.146,0.396,9.368,0.795,53.943,0.6,0.26,0.6,-363.0,0.50,0.157,0.485,8.944,0.453,53.712,0.9,0.28,0.4,-363.0,16.433,92218.906,787.534,16.431,92223.593,787.411,5289,0.396,787.411,-356628.968,2.666,1.925,0.0,0.0,0.0,0.0,4.54,0.238
5331,2,5331,42,0.176,0.126,0.409,9.397,0.610,53.998,0.5,0.27,0.6,-363.0,0.294,0.43,0.391,9.748,0.263,53.887,0.4,0.32,0.5,-363.0,16.435,92218.687,787.395,16.440,92221.468,786.809,5331,0.409,786.809,-373538.906,-14.340,2.755,0.0,0.0,0.0,0.0,4.41,0.246
5368,2,5368,37,0.189,0.100,0.424,9.400,0.637,53.952,0.5,0.27,0.6,-363.0,0.114,0.21,0.456,9.368,0.482,54.19,0.7,0.22,0.10,-363.0,16.435,92220.0,787.353,16.440,92222.367,787.315,5368,0.424,787.315,-388966.968,13.683,1.708,0.0,0.0,0.0,0.0,4.60,0.255
5437,2,5437,69,0.221,0.110,0.446,9.535,0.643,53.858,0.6,0.27,0.6,-363.0,0.323,0.200,0.449,10.55,0.979,53.902,0.6,0.30,0.3,-363.0,16.438,92220.31,787.167,16.444,92219.343,786.985,5437,0.446,786.985,-419026.31,-4.781,2.167,0.0,0.0,0.0,0.0,4.54,0.268
5473,2,5473,36,0.172,0.91,0.430,9.546,0.663,53.814,0.7,0.27,0.5,-363.0,0.78,0.78,0.370,9.617,-1.140,53.551,0.7,0.25,0.5,-363.0,16.436,92221.195,787.126,16.426,92219.179,787.109,5473,0.430,787.109,-434812.406,3.451,1.906,0.0,0.0,0.0,0.0,4.60,0.259
5517,2,5517,44,0.185,0.74,0.407,9.742,0.745,53.823,0.6,0.27,0.5,-363.0,0.114,0.71,0.370,9.923,0.862,53.756,0.7,0.25,0.2,-363.0,16.436,92220.273,787.62,16.431,92219.15,787.95,5517,0.407,787.95,-453254.31,0.320,2.9,0.0,0.0,0.0,0.0,4.60,0.245
5553,2,5553,36,0.143,0.110,0.400,9.807,0.950,53.832,0.6,0.25,0.4,-363.0,0.86,0.222,0.355,10.70,-1.286,53.931,0.4,0.23,0.1,-363.0,16.436,92219.578,787.145,16.440,92217.953,787.220,5553,0.400,787.220,-467799.937,3.467,1.905,0.0,0.0,0.0,0.0,4.60,0.241
5596,2,5596,43,0.153,0.160,0.380,9.956,0.985,53.759,0.5,0.27,0.2,-363.0,0.165,0.229,0.355,10.114,0.657,53.653,0.3,0.29,0.3,-363.0,16.438,92217.984,787.208,16.449,92214.437,787.631,5596,0.380,787.631,-484587.750,9.565,1.777,0.0,0.0,0.0,0.0,4.60,0.229
5633,2,5633,37,0.133,0.167,0.358,9.935,0.879,53.756,0.5,0.26,0.2,-363.0,0.222,0.236,0.341,9.953,0.453,53.887,0.6,0.28,0.2,-363.0,16.439,92218.796,787.258,16.449,92223.429,787.234,5633,0.358,787.234,-498262.812,-10.720,2.474,0.0,0.0,0.0,0.0,4.60,0.216
5675,2,5675,42,0.130,0.189,0.355,9.976,0.727,53.744,0.5,0.26,0.2,-363.0,0.64,0.186,0.355,9.821,0.380,53.493,0.9,0.23,0.7,-363.0,16.442,92218.273,787.362,16.444,92216.562,787.631,5675,0.355,787.631,-513273.312,9.444,1.779,0.0,0.0,0.0,0.0,4.60,0.214
5711,2,5711,36,0.133,0.190,0.348,9.979,0.660,53.697,0.5,0.26,0.3,-363.0,0.129,0.78,0.334,9.938,0.526,53.522,0.4,0.28,0.5,-363.0,16.445,92216.875,787.472,16.444,92211.984,787.646,5711,0.348,787.646,-525958.562,0.406,1.987,0.0,0.0,0.0,0.0,4.60,0.210
5753,2,5753,42,0.139,0.156,0.358,9.953,0.479,53.645,0.5,0.27,0.4,-363.0,0.114,0.50,0.406,9.938,0.380,53.668,0.4,0.25,0.4,-363.0,16.447,92216.601,787.640,16.449,92216.562,788.57,5753,0.358,788.57,-540818.312,9.794,1.772,0.0,0.0,0.0,0.0,4.60,0.216
5789,2,5789,36,0.136,0.146,0.354,9.865,0.423,53.627,0.5,0.26,0.4,-363.0,0.150,0.179,0.334,9.675,0.380,53.566,0.4,0.25,0.4,-363.0,16.448,92216.773,787.583,16.453,92215.335,787.345,5789,0.354,787.345,-553658.625,-19.792,3.461,0.0,0.0,0.0,0.0,4.60,0.213
5832,2,5832,43,0.107,0.136,0.363,9.786,0.444,53.481,0.5,0.26,0.4,-363.0,0.78,0.186,0.384,9.558,0.555,53.156,0.4,0.27,0.1,-363.0,16.449,92215.859,787.643,16.453,92218.851,787.536,5832,0.363,787.536,-569088.250,4.441,1.882,0.0,0.0,0.0,0.0,4.60,0.218
5868,2,5868,36,0.120,0.134,0.357,9.883,0.505,53.452,0.4,0.26,0.5,-363.0,0.129,0.179,0.327,10.304,0.686,53.346,0.6,0.24,0.10,-363.0,16.453,92216.773,787.566,16.463,92221.140,787.249,5868,0.357,787.249,-582057.812,-7.958,2.313,0.0,0.0,0.0,0.0,4.60,0.215
5937,2,5937,69,0.122,0.160,0.364,9.818,0.537,53.358,0.5,0.25,0.4,-363.0,0.136,0.208,0.370,9.617,0.686,53.54,0.4,0.26,0.0,-363.0,16.455,92218.640,787.421,16.458,92221.304,786.919,5937,0.364,786.919,-606965.625,-4.789,2.167,0.0,0.0,0.0,0.0,4.47,0.219
5974,2,5974,37,0.142,0.186,0.350,9.853,0.663,53.300,0.5,0.26,0.4,-363.0,0.215,0.179,0.334,10.114,-1.8,53.376,0.6,0.27,0.7,-363.0,16.454,92219.546,787.295,16.444,92221.140,787.426,5974,0.350,787.426,-620189.187,13.699,1.708,0.0,0.0,0.0,0.0,4.60,0.210
6016,2,6016,42,0.124,0.205,0.355,9.997,0.719,53.218,0.5,0.26,0.5,-363.0,0.64,0.272,0.363,10.391,0.657,53.156,0.6,0.26,0.7,-363.0,16.454,92221.843,787.232,16.453,92226.789,787.29,6016,0.355,787.29,-635018.812,-9.445,2.395,0.0,0.0,0.0,0.0,4.60,0.214
6052,2,6052,36,0.139,0.192,0.364,10.17,0.669,53.256,0.6,0.27,0.6,-363.0,0.150,0.122,0.427,9.660,0.306,53.346,0.8,0.28,0.6,-363.0,16.453,92221.140,787.171,16.449,92215.335,787.234,6052,0.364,787.234,-647988.375,5.713,1.853,0.0,0.0,0.0,0.0,4.66,0.219
6095,2,6095,43,0.143,0.185,0.370,9.833,0.713,53.308,0.6,0.27,0.5,-363.0,0.150,0.143,0.355,9.383,0.906,53.610,0.5,0.29,0.3,-363.0,16.452,92221.562,787.89,16.453,92223.265,786.837,6095,0.370,786.837,-663788.437,-9.237,2.383,0.0,0.0,0.0,0.0,4.60,0.223
6131,2,6131,36,0.152,0.166,0.371,9.733,0.684,53.358,0.5,0.28,0.5,-363.0,0.179,0.114,0.377,9.120,0.540,53.303,0.3,0.29,0.3,-363.0,16.452,92221.710,787.237,16.458,92222.39,787.660,6131,0.371,787.660,-677145.625,22.866,1.593,0.0,0.0,0.0,0.0,4.60,0.223
6173,2,6173,42,0.136,0.172,0.386,9.666,0.692,53.326,0.5,0.28,0.5,-363.0,0.136,0.208,0.406,9.777,-1.52,53.215,0.3,0.28,0.7,-363.0,16.454,92221.890,787.284,16.458,92222.39,787.660,6173,0.386,787.660,-693060.625,0.0,2.0,0.0,0.0,0.0,0.0,4.60,0.232
6209,2,6209,36,0.157,0.143,0.386,9.570,0.660,53.346,0.5,0.29,0.5,-363.0,0.172,0.129,0.363,9.909,0.496,53.259,0.6,0.30,0.4,-363.0,16.456,92220.484,787.328,16.463,92219.750,787.249,6209,0.386,787.249,-706960.500,-11.425,2.521,0.0,0.0,0.0,0.0,4.66,0.232
6253,2,6253,44,0.153,0.160,0.371,9.672,0.637,53.303,0.4,0.29,0.4,-363.0,0.129,0.208,0.355,10.172,0.190,53.127,0.5,0.29,0.2,-363.0,16.459,92221.125,787.436,16.463,92218.523,787.771,6253,0.371,787.771,-723633.375,11.851,1.737,0.0,0.0,0.0,0.0,4.60,0.223
6289,2,6289,36,0.150,0.155,0.374,9.766,0.540,53.183,0.5,0.28,0.4,-363.0,0.136,0.114,0.370,9.850,0.423,53.10,0.7,0.24,0.1,-363.0,16.460,92220.875,787.439,16.458,92222.39,786.852,6289,0.374,786.852,-737068.62,-25.504,5.257,0.0,0.0,0.0,0.0,4.66,0.225
6326,2,6326,37,0.143,0.165,0.373,9.874,0.543,53.206,0.5,0.28,0.4,-363.0,0.143,0.165,0.370,9.660,0.555,53.420,0.4,0.29,0.4,-363.0,16.462,92219.718,787.359,16.467,92216.234,787.264,6326,0.373,787.264,-750902.500,11.116,1.749,0.0,0.0,0.0,0.0,4.47,0.224
6368,2,6368,42,0.137,0.153,0.383,9.874,0.520,53.311,0.5,0.26,0.3,-363.0,0.107,0.150,0.456,9.777,0.935,53.741,0.4,0.20,0.3,-363.0,16.463,92218.554,787.378,16.463,92216.234,787.756,6368,0.383,787.756,-766787.375,11.718,1.739,0.0,0.0,0.0,0.0,4.60,0.230
6433,2,6433,65,0.124,0.165,0.381,9.842,0.570,53.303,0.5,0.25,0.3,-363.0,0.107,0.186,0.355,9.748,0.745,53.215,0.6,0.23,0.6,-363.0,16.463,92219.78,787.373,16.463,92222.367,787.220,6433,0.381,787.220,-791651.0,-8.248,2.328,0.0,0.0,0.0,0.0,4.47,0.229
6474,2,6474,41,0.134,0.157,0.406,9.549,0.619,53.332,0.6,0.26,0.3,-363.0,0.179,0.172,0.477,8.710,0.438,53.273,0.8,0.35,0.1,-363.0,16.460,92219.632,787.243,16.449,92221.304,787.124,6474,0.406,787.124,-807805.125,-2.329,2.75,0.0,0.0,0.0,0.0,4.54,0.244
6510,2,6510,36,0.116,0.163,0.407,9.429,0.622,53.501,0.7,0.26,0.3,-363.0,0.43,0.143,0.377,9.251,0.438,53.858,0.14,0.24,0.1,-363.0,16.457,92218.789,787.259,16.444,92217.789,786.933,6510,0.407,786.933,-822454.437,-5.306,2.189,0.0,0.0,0.0,0.0,4.47,0.245
6553,2,6553,43,0.117,0.133,0.406,9.441,0.593,53.484,0.7,0.27,0.2,-363.0,0.150,0.14,0.363,9.719,0.409,53.332,0.2,0.32,0.0,-363.0,16.456,92218.640,787.314,16.463,92215.500,787.536,6553,0.406,787.536,-839952.187,14.8,1.704,0.0,0.0,0.0,0.0,4.47,0.244
6589,2,6589,36,0.129,0.136,0.373,9.409,0.444,53.434,0.6,0.28,0.2,-363.0,0.165,0.165,0.291,9.617,0.190,53.493,0.3,0.26,0.1,-363.0,16.454,92219.375,787.273,16.453,92219.914,787.550,6589,0.373,787.550,-853981.250,0.406,1.987,0.0,0.0,0.0,0.0,4.41,0.224
6631,2,6631,42,0.156,0.142,0.380,9.342,0.353,53.387,0.6,0.29,0.1,-363.0,0.244,0.215,0.391,9.412,0.292,52.981,0.3,0.26,0.3,-363.0,16.452,92218.882,787.317,16.449,92219.914,787.440,6631,0.380,787.440,-869805.812,-2.621,2.85,0.0,0.0,0.0,0.0,4.47,0.229
6668,2,6668,37,0.133,0.155,0.376,9.593,0.371,53.434,0.7,0.26,0.2,-363.0,0.64,0.236,0.456,9.967,0.526,53.507,0.11,0.24,0.7,-363.0,16.453,92217.687,787.443,16.453,92215.335,787.756,6668,0.376,787.756,-883799.625,8.535,1.796,0.0,0.0,0.0,0.0,4.41,0.226
6710,2,6710,42,0.175,0.147,0.364,9.619,0.263,53.364,0.6,0.28,0.2,-363.0,0.251,0.107,0.320,9.383,0.102,53.507,0.8,0.32,0.2,-363.0,16.454,92217.414,787.605,16.453,92216.398,787.741,6710,0.364,787.741,-899352.812,0.348,2.10,0.0,0.0,0.0,0.0,4.47,0.219
6746,2,6746,36,0.153,0.157,0.350,9.725,0.248,53.314,0.6,0.27,0.4,-363.0,0.43,0.64,0.291,10.245,0.336,53.83,0.3,0.26,0.10,-363.0,16.452,92218.46,787.544,16.449,92218.687,787.234,6746,0.350,787.234,-912219.0,-14.78,2.731,0.0,0.0,0.0,0.0,4.54,0.210
6789,2,6789,43,0.139,0.136,0.373,9.570,0.195,53.230,0.6,0.27,0.5,-363.0,0.93,0.57,0.406,8.842,0.73,53.69,0.4,0.26,0.5,-363.0,16.453,92217.593,787.564,16.458,92217.625,787.646,6789,0.373,787.646,-927772.125,9.565,1.777,0.0,0.0,0.0,0.0,4.47,0.224
6825,2,6825,36,0.104,0.137,0.371,9.576,0.192,53.282,0.6,0.27,0.5,-363.0,0.71,0.222,0.384,9.441,0.277,53.244,0.4,0.27,0.2,-363.0,16.454,92217.593,787.443,16.458,92219.914,786.837,6825,0.371,786.837,-941181.0,-22.459,4.65,0.0,0.0,0.0,0.0,4.47,0.223
6868,2,6868,43,0.132,0.139,0.364,9.593,0.137,53.250,0.5,0.28,0.5,-363.0,0.200,0.244,0.420,10.55,0.248,53.346,0.4,0.28,0.5,-363.0,16.454,92219.421,787.300,16.453,92224.500,787.43,6868,0.364,787.43,-957011.937,4.794,1.874,0.0,0.0,0.0,0.0,4.47,0.219
6915,2,6915,47,0.114,0.155,0.400,9.587,0.222,53.262,0.4,0.28,0.5,-363.0,0.165,0.186,0.499,9.353,0.321,53.566,0.5,0.34,0.5,-363.0,16.455,92219.453,787.240,16.458,92216.562,787.440,6915,0.400,787.440,-974990.312,8.441,1.797,0.0,0.0,0.0,0.0,4.47,0.241
6957,2,6957,42,0.127,0.153,0.419,9.596,0.184,53.346,0.5,0.28,0.4,-363.0,0.107,0.57,0.384,10.289,0.146,53.507,0.9,0.25,0.3,-363.0,16.456,92219.31,787.199,16.453,92216.562,787.29,6957,0.419,787.29,-992201.750,-9.794,2.416,0.0,0.0,0.0,0.0,4.47,0.252
6993,2,6993,36,0.117,0.139,0.437,9.774,0.163,53.408,0.5,0.29,0.4,-363.0,0.43,0.14,0.499,9.733,0.175,53.376,0.6,0.32,0.5,-363.0,16.455,92219.945,787.139,16.453,92222.203,787.345,6993,0.437,787.345,-1007626.312,8.773,1.791,0.0,0.0,0.0,0.0,4.47,0.263
7036,2,7036,43,0.124,0.117,0.420,9.885,0.105,53.384,0.5,0.29,0.4,-363.0,0.107,0.114,0.298,9.997,0.14,53.127,0.1,0.27,0.2,-363.0,16.454,92220.828,787.155,16.453,92224.335,786.919,7036,0.420,786.919,-1026081.0,-9.907,2.422,0.0,0.0,0.0,0.0,4.47,0.253
7072,2,7072,36,0.122,0.117,0.414,9.754,0.14,53.314,0.5,0.29,0.4,-363.0,0.186,0.244,0.391,9.397,0.204,52.996,0.5,0.26,0.3,-363.0,16.454,92220.164,787.298,16.453,92221.140,787.756,7072,0.414,787.756,-1041117.937,23.259,1.589,0.0,0.0,0.0,0.0,4.47,0.249
7114,2,7114,42,0.99,0.104,0.383,9.862,0.99,53.311,0.5,0.28,0.4,-363.0,0.50,0.122,0.341,9.894,0.248,53.551,0.5,0.29,0.5,-363.0,16.454,92219.914,787.218,16.458,92215.335,787.43,7114,0.383,787.43,-1057877.125,-16.964,3.36,0.0,0.0,0.0,0.0,4.47,0.230
7150,2,7150,36,0.101,0.134,0.380,9.745,0.175,53.443,0.4,0.28,0.4,-363.0,0.122,0.208,0.370,9.704,0.233,54.165,0.5,0.28,0.6,-363.0,16.453,92219.890,787.345,16.449,92216.398,787.660,7150,0.380,787.660,-1071622.0,17.139,1.660,0.0,0.0,0.0,0.0,4.47,0.229
7193,2,7193,43,0.101,0.150,0.345,9.704,0.251,53.455,0.4,0.27,0.3,-363.0,0.43,0.64,0.327,9.529,0.555,53.434,0.5,0.27,0.1,-363.0,16.454,92218.507,787.386,16.458,92215.335,787.550,7193,0.345,787.550,-1087236.875,-2.562,2.83,0.0,0.0,0.0,0.0,4.47,0.208
7229,2,7229,36,0.117,0.160,0.366,9.619,0.125,53.601,0.5,0.27,0.4,-363.0,0.186,0.165,0.399,9.573,0.613,53.858,0.4,0.24,0.4,-363.0,16.456,92216.710,787.474,16.463,92215.335,787.359,7229,0.366,787.359,-1100051.375,-5.304,2.189,0.0,0.0,0.0,0.0,4.47,0.220
7271,2,7271,42,0.126,0.127,0.364,9.809,0.61,53.741,0.5,0.27,0.4,-363.0,0.229,0.78,0.384,10.347,0.116,53.697,0.5,0.28,0.3,-363.0,16.457,92214.179,787.271,16.458,92208.468,786.742,7271,0.364,786.742,-1115393.500,-14.703,2.789,0.0,0.0,0.0,0.0,4.60,0.219
7307,2,7307,36,0.152,0.143,0.377,9.678,0.23,53.642,0.5,0.26,0.3,-363.0,0.179,0.200,0.406,9.237,0.58,53.54,0.8,0.24,0.3,-363.0,16.457,92213.718,787.312,16.458,92213.46,787.249,7307,0.377,787.249,-1128750.625,14.94,1.702,0.0,0.0,0.0,0.0,4.41,0.227
7350,2,7350,43,0.153,0.145,0.388,9.590,0.128,53.531,0.5,0.26,0.3,-363.0,0.129,0.215,0.427,9.266,0.526,53.610,0.4,0.29,0.1,-363.0,16.459,92214.171,787.230,16.458,92218.687,787.249,7350,0.388,787.249,-1145229.750,0.0,2.0,0.0,0.0,0.0,0.0,4.47,0.234
7386,2,7386,36,0.192,0.153,0.413,9.590,0.333,53.577,0.5,0.26,0.4,-363.0,0.236,0.107,0.449,9.529,0.467,53.668,0.5,0.25,0.7,-363.0,16.460,92215.296,787.233,16.463,92220.976,787.565,7386,0.413,787.565,-1159672.250,8.773,1.791,0.0,0.0,0.0,0.0,4.47,0.249
7456,2,7456,70,0.195,0.159,0.423,9.611,0.289,53.487,0.6,0.27,0.3,-363.0,0.200,0.193,0.449,9.675,0.394,53.405,0.6,0.28,0.2,-363.0,16.461,92215.796,787.227,16.467,92217.789,787.330,7456,0.423,787.330,-1188961.0,-3.356,2.111,0.0,0.0,0.0,0.0,4.60,0.255
7493,2,7493,37,0.178,0.152,0.416,9.558,0.321,53.417,0.6,0.27,0.3,-363.0,0.143,0.43,0.348,10.84,0.277,53.346,0.7,0.31,0.3,-363.0,16.457,92219.0,787.262,16.440,92224.500,786.919,7493,0.416,786.919,-1204495.250,-11.118,2.500,0.0,0.0,0.0,0.0,4.60,0.250
7535,2,7535,42,0.136,0.109,0.388,9.754,0.385,53.446,0.6,0.27,0.3,-363.0,0.28,0.14,0.269,10.216,0.263,53.200,0.7,0.24,0.3,-363.0,16.456,92219.31,787.174,16.453,92213.210,786.809,7535,0.388,786.809,-1221405.250,-2.621,2.85,0.0,0.0,0.0,0.0,4.60,0.234
7571,2,7571,36,0.162,0.83,0.370,9.827,0.409,53.417,0.5,0.28,0.4,-363.0,0.258,0.86,0.334,9.631,0.643,53.463,0.1,0.33,0.3,-363.0,16.454,92218.390,787.232,16.449,92215.500,787.536,7571,0.370,787.536,-1235072.500,20.197,1.622,0.0,0.0,0.0,0.0,4.60,0.223
7615,2,7615,44,0.152,0.106,0.347,9.991,0.415,53.329,0.6,0.28,0.3,-363.0,0.186,0.222,0.334,10.347,0.496,53.230,0.7,0.23,0.3,-363.0,16.453,92217.54,787.185,16.453,92214.273,787.330,7615,0.347,787.330,-1250861.0,-4.673,2.163,0.0,0.0,0.0,0.0,4.54,0.209
7651,2,7651,36,0.142,0.114,0.335,10.146,0.301,53.376,0.5,0.27,0.2,-363.0,0.150,0.236,0.391,10.450,0.175,53.639,0.5,0.26,0.1,-363.0,16.451,92217.234,787.289,16.458,92218.687,787.851,7651,0.335,787.851,-1263158.625,14.485,1.697,0.0,0.0,0.0,0.0,4.47,0.202
7688,2,7688,37,0.134,0.113,0.328,10.230,0.233,53.320,0.5,0.27,0.3,-363.0,0.107,0.35,0.312,10.508,0.58,53.69,0.8,0.27,0.6,-363.0,16.453,92214.945,787.333,16.449,92213.46,787.139,7688,0.328,787.139,-1275452.625,-19.257,3.368,0.0,0.0,0.0,0.0,4.60,0.197
7730,2,7730,42,0.165,0.119,0.322,10.163,0.169,53.420,0.4,0.28,0.3,-363.0,0.122,0.14,0.241,9.880,0.58,53.697,0.2,0.29,0.5,-363.0,16.453,92215.156,787.459,16.458,92214.273,787.440,7730,0.322,787.440,-1289136.625,7.171,1.822,0.0,0.0,0.0,0.0,4.60,0.194
7766,2,7766,36,0.134,0.101,0.325,10.266,0.5,53.449,0.5,0.26,0.3,-363.0,0.107,0.0,0.348,10.143,0.175,53.610,0.2,0.25,0.4,-363.0,16.454,92215.578,787.542,16.453,92217.625,787.947,7766,0.325,787.947,-1300814.0,14.78,1.703,0.0,0.0,0.0,0.0,4.47,0.196
7810,2,7810,44,0.91,0.66,0.351,10.225,0.122,53.507,0.4,0.27,0.3,-363.0,0.28,0.43,0.463,10.143,0.146,53.522,0.4,0.29,0.1,-363.0,16.454,92216.500,787.646,16.453,92218.851,787.851,7810,0.351,787.851,-1315718.125,-2.170,2.69,0.0,0.0,0.0,0.0,4.60,0.211
7846,2,7846,36,0.126,0.58,0.334,10.116,0.43,53.434,0.4,0.29,0.3,-363.0,0.323,0.200,0.305,9.909,0.219,53.273,0.3,0.38,0.0,-363.0,16.454,92215.585,787.544,16.458,92214.109,787.345,7846,0.334,787.345,-1328067.500,-14.78,2.731,0.0,0.0,0.0,0.0,4.60,0.201
7888,2,7888,42,0.137,0.73,0.376,9.944,0.134,53.542,0.5,0.29,0.4,-363.0,0.165,0.107,0.521,9.646,0.511,53.610,0.16,0.25,0.12,-363.0,16.454,92215.796,787.668,16.449,92214.109,787.756,7888,0.376,787.756,-1342987.625,9.793,1.772,0.0,0.0,0.0,0.0,4.47,0.226
7952,2,7952,64,0.132,0.143,0.426,9.850,0.239,53.475,0.5,0.28,0.4,-363.0,0.93,0.366,0.492,9.412,0.584,53.361,0.0,0.21,0.5,-363.0,16.453,92216.984,787.703,16.453,92220.242,787.617,7952,0.426,787.617,-1368663.250,-2.179,2.69,0.0,0.0,0.0,0.0,4.60,0.256
7994,2,7994,42,0.104,0.239,0.453,9.713,0.347,53.408,0.5,0.28,0.5,-363.0,0.28,0.480,0.485,9.456,0.716,53.273,0.0,0.26,0.5,-363.0,16.450,92215.929,787.618,16.435,92212.312,787.521,7994,0.453,787.521,-1387141.0,-2.274,2.73,0.0,0.0,0.0,0.0,4.60,0.273
8030,2,8030,36,0.180,0.238,0.427,9.608,0.347,53.469,0.5,0.29,0.5,-363.0,0.351,0.35,0.334,9.617,0.146,53.829,0.4,0.35,0.4,-363.0,16.445,92216.0,787.511,16.431,92219.179,787.315,8030,0.427,787.315,-1403004.875,-5.727,2.207,0.0,0.0,0.0,0.0,4.60,0.257
8073,2,8073,43,0.113,0.209,0.477,9.678,0.496,53.496,0.7,0.25,0.6,-363.0,0.14,0.57,0.556,10.260,0.526,53.405,0.14,0.20,0.3,-363.0,16.441,92217.226,787.587,16.435,92220.242,787.727,8073,0.477,787.727,-1422478.125,9.578,1.776,0.0,0.0,0.0,0.0,4.60,0.287
8109,2,8109,36,0.137,0.228,0.426,9.713,0.426,53.522,0.5,0.25,0.4,-363.0,0.287,0.200,0.262,9.821,0.160,53.741,0.7,0.22,0.4,-363.0,16.439,92217.742,787.540,16.440,92216.726,787.521,8109,0.426,787.521,-1438755.500,-5.713,2.206,0.0,0.0,0.0,0.0,4.60,0.256
8151,2,8151,42,0.100,0.274,0.403,9.725,0.333,53.601,0.4,0.26,0.3,-363.0,0.93,0.595,0.377,9.470,0.116,53.756,0.3,0.26,0.0,-363.0,16.436,92218.203,787.480,16.440,92222.531,787.315,8151,0.403,787.315,-1456178.0,-4.908,2.172,0.0,0.0,0.0,0.0,4.66,0.242
8187,2,8187,36,0.167,0.200,0.381,9.807,0.286,53.686,0.3,0.29,0.3,-363.0,0.308,0.114,0.377,9.865,0.482,53.697,0.3,0.40,0.5,-363.0,16.436,92219.507,787.442,16.435,92218.851,787.330,8187,0.381,787.330,-1470310.500,0.422,1.987,0.0,0.0,0.0,0.0,4.60,0.229
8230,2,8230,43,0.146,0.190,0.341,9.847,0.479,53.574,0.4,0.28,0.4,-363.0,0.244,0.14,0.133,9.821,1.110,53.273,0.8,0.31,0.7,-363.0,16.439,92218.765,787.422,16.444,92215.500,787.220,8230,0.341,787.220,-1485863.625,-2.562,2.83,0.0,0.0,0.0,0.0,4.54,0.205
8266,2,8266,36,0.178,0.183,0.322,9.722,0.438,53.624,0.4,0.27,0.4,-363.0,0.143,0.21,0.463,9.631,0.321,53.653,0.12,0.17,0.6,-363.0,16.442,92218.484,787.343,16.449,92218.851,787.330,8266,0.322,787.330,-1497825.375,3.60,1.915,0.0,0.0,0.0,0.0,4.47,0.194
8309,2,8309,43,0.150,0.180,0.344,9.716,0.578,53.612,0.2,0.28,0.4,-363.0,0.150,0.186,0.370,9.792,0.862,53.683,0.1,0.23,0.3,-363.0,16.443,92219.164,787.428,16.449,92220.78,787.947,8309,0.344,787.947,-1512174.625,14.348,1.699,0.0,0.0,0.0,0.0,4.66,0.207
8345,2,8345,36,0.157,0.162,0.328,9.731,0.640,53.642,0.3,0.27,0.5,-363.0,0.57,0.502,0.298,9.543,0.423,53.902,0.0,0.24,0.3,-363.0,16.444,92217.757,787.412,16.444,92215.500,787.234,8345,0.328,787.234,-1524291.375,-19.792,3.461,0.0,0.0,0.0,0.0,4.54,0.197
8388,2,8388,43,0.226,0.195,0.347,9.619,0.628,53.618,0.5,0.27,0.5,-363.0,0.653,0.279,0.470,9.310,0.423,53.580,0.9,0.40,0.3,-363.0,16.447,92218.0,787.412,16.449,92220.78,787.330,8388,0.347,787.330,-1538825.875,2.221,1.937,0.0,0.0,0.0,0.0,4.60,0.209
8452,2,8452,64,0.137,0.278,0.386,9.570,0.534,53.569,0.6,0.23,0.2,-363.0,0.200,0.401,0.327,9.573,0.643,53.25,0.13,0.9,0.4,-363.0,16.448,92219.156,787.431,16.449,92221.304,787.315,8452,0.386,787.315,-1562296.250,0.237,2.7,0.0,0.0,0.0,0.0,4.54,0.232
8494,2,8494,42,0.172,0.281,0.378,9.494,0.546,53.621,0.4,0.28,0.1,-363.0,0.315,0.35,0.427,9.251,0.380,53.916,0.1,0.45,0.0,-363.0,16.446,92218.976,787.447,16.440,92217.953,787.411,8494,0.378,787.411,-1578362.0,2.285,1.935,0.0,0.0,0.0,0.0,4.41,0.228
8530,2,8530,36,0.106,0.265,0.374,9.494,0.599,53.688,0.7,0.27,0.2,-363.0,0.179,0.107,0.348,9.792,1.125,54.19,0.11,0.17,0.9,-363.0,16.444,92217.851,787.283,16.440,92214.437,787.124,8530,0.374,787.124,-1591925.875,-7.958,2.313,0.0,0.0,0.0,0.0,4.47,0.225
8572,2,8572,42,0.215,0.162,0.383,9.517,0.581,53.636,0.8,0.31,0.2,-363.0,0.488,0.14,0.341,9.660,0.336,53.639,0.7,0.43,0.3,-363.0,16.445,92218.562,787.343,16.449,92219.15,787.536,8572,0.383,787.536,-1607840.875,9.793,1.772,0.0,0.0,0.0,0.0,4.41,0.230
8608,2,8608,36,0.183,0.129,0.358,9.760,0.613,53.592,0.7,0.23,0.4,-363.0,0.495,0.114,0.348,10.523,0.584,53.361,0.4,0.0,0.12,-363.0,16.444,92218.523,787.425,16.444,92219.914,787.741,8608,0.358,787.741,-1621198.0,5.713,1.853,0.0,0.0,0.0,0.0,4.47,0.216
8651,2,8651,43,0.143,0.114,0.341,9.842,0.575,53.802,0.5,0.26,0.4,-363.0,0.401,0.330,0.241,9.982,0.453,54.77,0.1,0.25,0.0,-363.0,16.445,92215.984,787.470,16.453,92208.632,787.536,8651,0.341,787.536,-1636257.250,-4.783,2.167,0.0,0.0,0.0,0.0,4.47,0.205
8687,2,8687,36,0.111,0.97,0.340,9.964,0.648,53.703,0.3,0.26,0.5,-363.0,0.157,0.50,0.420,9.865,0.745,53.420,0.6,0.43,0.0,-363.0,16.446,92216.390,787.437,16.444,92219.914,787.249,8687,0.340,787.249,-1648529.0,-7.958,2.313,0.0,0.0,0.0,0.0,4.41,0.204
8729,2,8729,42,0.192,0.71,0.350,10.108,0.678,53.598,0.3,0.28,0.5,-363.0,0.222,0.21,0.399,10.508,1.271,53.493,0.11,0.27,0.11,-363.0,16.449,92216.351,787.358,16.453,92214.273,786.727,8729,0.350,786.727,-1663027.0,-12.429,2.594,0.0,0.0,0.0,0.0,4.47,0.210
8765,2,8765,36,0.165,0.68,0.436,10.286,0.830,53.458,0.4,0.24,0.4,-363.0,0.351,0.28,0.772,10.552,1.96,52.937,0.10,0.25,0.0,-363.0,16.449,92216.523,787.380,16.449,92219.914,787.646,8765,0.436,787.646,-1677185.250,25.519,1.566,0.0,0.0,0.0,0.0,4.47,0.262
8808,2,8808,43,0.41,0.86,0.463,10.230,0.894,53.484,0.3,0.29,0.3,-363.0,0.122,0.200,0.485,10.245,0.906,53.493,0.1,0.22,0.7,-363.0,16.451,92214.976,787.421,16.453,92212.148,787.947,8808,0.463,787.947,-1696535.125,7.4,1.826,0.0,0.0,0.0,0.0,4.47,0.279
8844,2,8844,36,0.136,0.61,0.482,10.359,0.876,53.361,0.3,0.30,0.5,-363.0,0.71,0.208,0.334,10.625,0.365,53.463,0.1,0.30,0.8,-363.0,16.449,92217.445,787.361,16.444,92220.976,787.234,8844,0.482,787.234,-1713561.875,-19.792,3.461,0.0,0.0,0.0,0.0,4.41,0.290
8886,2,8886,42,0.176,0.89,0.453,10.540,0.950,53.420,0.6,0.29,0.5,-363.0,0.358,0.86,0.276,10.771,1.110,53.712,0.7,0.39,0.1,-363.0,16.451,92216.531,787.358,16.453,92215.335,787.234,8886,0.453,787.234,-1733215.375,0.0,2.0,0.0,0.0,0.0,0.0,4.47,0.273
8922,2,8922,36,0.216,0.127,0.460,10.494,0.847,53.446,0.6,0.27,0.4,-363.0,0.423,0.172,0.434,10.274,0.760,53.624,0.11,0.18,0.6,-363.0,16.450,92216.953,787.522,16.449,92216.398,787.550,8922,0.460,787.550,-1749673.625,8.772,1.791,0.0,0.0,0.0,0.0,4.47,0.277
8996,2,8996,74,0.159,0.172,0.378,10.385,0.798,53.560,0.4,0.27,0.5,-363.0,0.64,0.193,0.363,10.11,0.847,53.507,0.2,0.25,0.3,-363.0,16.452,92217.234,787.517,16.458,92221.304,787.617,8996,0.378,787.617,-1780742.250,0.894,1.973,0.0,0.0,0.0,0.0,4.41,0.228
9033,2,9033,37,0.180,0.133,0.363,10.391,0.859,53.536,0.5,0.29,0.4,-363.0,0.14,0.7,0.406,10.274,1.213,53.376,0.6,0.34,0.4,-363.0,16.447,92217.445,787.393,16.431,92213.210,787.330,9033,0.363,787.330,-1794470.500,-7.743,2.302,0.0,0.0,0.0,0.0,4.47,0.218
9077,2,9077,44,0.203,0.150,0.371,10.216,0.982,53.528,0.6,0.28,0.3,-363.0,0.186,0.294,0.377,9.748,0.979,53.420,0.6,0.25,0.2,-363.0,16.445,92216.140,787.412,16.435,92214.437,787.330,9077,0.371,787.330,-1810638.0,0.0,2.0,0.0,0.0,0.0,0.0,4.41,0.223
9113,2,9113,36,0.153,0.163,0.386,9.985,0.973,53.504,0.5,0.28,0.5,-363.0,0.107,0.150,0.348,9.617,1.66,53.595,0.3,0.36,0.9,-363.0,16.446,92217.546,787.615,16.458,92222.367,788.249,9113,0.386,788.249,-1824279.375,25.521,1.566,0.0,0.0,0.0,0.0,4.54,0.232
9155,2,9155,42,0.101,0.136,0.381,9.853,1.55,53.414,0.5,0.28,0.5,-363.0,0.165,0.35,0.413,9.617,1.169,53.171,0.8,0.22,0.9,-363.0,16.447,92219.625,787.555,16.453,92226.789,787.249,9155,0.381,787.249,-1840405.375,-23.800,4.496,0.0,0.0,0.0,0.0,4.47,0.229
9191,2,9191,36,0.83,0.96,0.420,9.809,1.137,53.458,0.5,0.29,0.6,-363.0,0.28,0.7,0.556,9.792,1.256,53.726,0.4,0.30,0.5,-363.0,16.446,92218.429,787.520,16.453,92215.335,787.440,9191,0.420,787.440,-1854847.875,5.306,1.862,0.0,0.0,0.0,0.0,4.47,0.253
9228,2,9228,37,0.101,0.150,0.407,9.850,1.110,53.408,0.5,0.28,0.5,-363.0,0.78,0.279,0.341,10.479,1.81,53.127,0.3,0.27,0.2,-363.0,16.452,92219.523,787.421,16.458,92218.687,786.837,9228,0.407,786.837,-1870169.750,-16.294,2.956,0.0,0.0,0.0,0.0,4.47,0.245
9271,2,9271,43,0.145,0.113,0.401,10.11,1.110,53.405,0.5,0.27,0.7,-363.0,0.401,0.107,0.348,10.552,0.979,53.405,0.9,0.21,0.9,-363.0,16.457,92221.46,787.405,16.463,92222.39,787.249,9271,0.401,787.249,-1887574.875,9.578,1.776,0.0,0.0,0.0,0.0,4.47,0.242
9307,2,9307,36,0.61,0.93,0.407,10.143,1.119,53.294,0.6,0.26,0.5,-363.0,0.308,0.50,0.377,10.274,1.110,53.40,0.7,0.28,0.1,-363.0,16.457,92218.687,787.205,16.458,92210.593,787.249,9307,0.407,787.249,-1902146.625,0.0,2.0,0.0,0.0,0.0,0.0,4.41,0.245
9349,2,9349,42,0.99,0.24,0.367,10.190,1.140,53.326,0.5,0.27,0.5,-363.0,0.351,0.308,0.212,9.850,1.271,53.332,0.1,0.29,0.9,-363.0,16.459,92217.39,787.227,16.463,92218.523,787.359,9349,0.367,787.359,-1918423.375,2.623,1.927,0.0,0.0,0.0,0.0,4.47,0.221
9385,2,9385,36,0.89,0.61,0.335,10.190,1.75,53.235,0.5,0.25,0.5,-363.0,0.78,0.179,0.399,9.792,0.935,53.273,0.3,0.21,0.6,-363.0,16.461,92217.921,787.151,16.463,92219.750,787.58,9385,0.335,787.58,-1931082.750,-8.366,2.335,0.0,0.0,0.0,0.0,4.47,0.202
9428,2,9428,43,0.156,0.38,0.360,10.195,1.119,53.373,0.5,0.24,0.5,-363.0,0.416,0.165,0.463,10.508,1.300,53.814,0.4,0.20,0.2,-363.0,16.463,92217.671,787.274,16.467,92217.460,787.455,9428,0.360,787.455,-1946049.375,9.226,1.783,0.0,0.0,0.0,0.0,4.54,0.217
9477,2,9477,49,0.99,0.94,0.374,10.23,1.11,53.414,0.3,0.29,0.5,-363.0,0.114,0.387,0.420,9.690,0.438,53.610,0.2,0.45,0.7,-363.0,16.462,92216.726,787.398,16.458,92217.296,787.866,9477,0.374,787.866,-1964054.125,8.394,1.798,0.0,0.0,0.0,0.0,4.47,0.225
9518,2,9518,41,0.176,0.126,0.364,9.929,1.72,53.510,0.4,0.27,0.5,-363.0,0.78,0.208,0.327,9.807,1.417,53.522,0.10,0.17,0.0,-363.0,16.462,92218.343,787.540,16.458,92218.687,787.962,9518,0.364,787.962,-1979207.625,2.329,1.934,0.0,0.0,0.0,0.0,4.60,0.219
9554,2,9554,36,0.155,0.198,0.426,10.128,1.128,53.437,0.5,0.29,0.4,-363.0,0.244,0.50,0.521,10.844,1.549,52.966,0.5,0.41,0.3,-363.0,16.462,92217.890,787.499,16.463,92216.234,787.154,9554,0.426,787.154,-1993443.500,-22.445,4.61,0.0,0.0,0.0,0.0,4.60,0.256
9601,2,9601,47,0.147,0.216,0.426,10.298,1.142,53.358,0.6,0.29,0.4,-363.0,0.114,0.272,0.399,10.640,1.8,52.879,0.10,0.19,0.10,-363.0,16.462,92217.429,787.496,16.463,92217.460,787.43,9601,0.426,787.43,-2013479.875,-2.344,2.75,0.0,0.0,0.0,0.0,4.47,0.256
9637,2,9637,36,0.124,0.203,0.409,10.347,1.78,53.273,0.6,0.32,0.5,-363.0,0.301,0.100,0.377,10.757,0.979,53.390,0.2,0.37,0.7,-363.0,16.461,92217.210,787.436,16.463,92216.398,787.154,9637,0.409,787.154,-2028516.875,3.60,1.915,0.0,0.0,0.0,0.0,4.60,0.246
9680,2,9680,43,0.96,0.167,0.403,10.441,1.198,53.162,0.6,0.28,0.5,-363.0,0.28,0.208,0.391,10.157,1.37,53.54,0.2,0.26,0.6,-363.0,16.464,92214.960,787.436,16.472,92206.15,787.866,9680,0.403,787.866,-2045983.750,16.570,1.667,0.0,0.0,0.0,0.0,4.66,0.242
9716,2,9716,36,0.155,0.146,0.403,10.537,1.119,53.130,0.5,0.30,0.6,-363.0,0.373,0.100,0.327,10.289,1.23,53.361,0.8,0.25,0.4,-363.0,16.464,92215.140,787.274,16.458,92219.585,787.154,9716,0.403,787.154,-2060503.875,-19.792,3.461,0.0,0.0,0.0,0.0,4.60,0.242
9759,2,9759,43,0.94,0.167,0.381,10.438,1.61,53.133,0.6,0.27,0.6,-363.0,0.57,0.157,0.413,10.347,1.256,52.981,0.7,0.29,0.6,-363.0,16.464,92215.851,787.337,16.463,92219.750,787.469,9759,0.381,787.469,-2077384.250,7.345,1.819,0.0,0.0,0.0,0.0,4.60,0.229
9795,2,9795,36,0.149,0.130,0.378,10.336,1.128,53.130,0.5,0.29,0.5,-363.0,0.157,0.86,0.384,10.128,1.344,52.864,0.6,0.29,0.4,-363.0,16.465,92217.640,787.321,16.472,92226.460,786.963,9795,0.378,786.963,-2091077.375,-14.78,2.731,0.0,0.0,0.0,0.0,4.41,0.228
9837,2,9837,42,0.126,0.123,0.394,10.216,1.116,53.151,0.6,0.29,0.5,-363.0,0.186,0.64,0.456,10.157,0.920,53.493,0.5,0.35,0.4,-363.0,16.466,92218.734,787.283,16.467,92221.875,786.963,9837,0.394,786.963,-2107324.0,0.0,2.0,0.0,0.0,0.0,0.0,4.60,0.237
9873,2,9873,36,0.163,0.127,0.383,10.166,1.72,53.270,0.6,0.27,0.4,-363.0,0.157,0.229,0.334,9.909,0.818,53.653,0.6,0.19,0.4,-363.0,16.465,92221.703,787.182,16.463,92220.812,787.359,9873,0.383,787.359,-2121327.250,11.18,1.751,0.0,0.0,0.0,0.0,4.60,0.230
9916,2,9916,43,0.114,0.149,0.370,10.76,1.87,53.273,0.5,0.28,0.5,-363.0,0.129,0.208,0.262,9.836,1.96,53.376,0.1,0.26,0.7,-363.0,16.465,92221.515,787.201,16.458,92218.687,787.249,9916,0.370,787.249,-2137528.500,-2.562,2.83,0.0,0.0,0.0,0.0,4.60,0.223
9952,2,9952,36,0.129,0.155,0.367,10.14,1.90,53.399,0.5,0.27,0.5,-363.0,0.14,0.186,0.399,10.40,1.271,53.610,0.5,0.29,0.7,-363.0,16.464,92221.93,787.157,16.458,92217.625,787.249,9952,0.367,787.249,-2150808.250,0.0,2.0,0.0,0.0,0.0,0.0,4.47,0.221
10025,2,10025,73,0.107,0.170,0.357,10.58,1.26,53.411,0.5,0.25,0.6,-363.0,0.50,0.165,0.334,10.347,1.23,52.923,0.6,0.16,0.7,-363.0,16.460,92218.46,787.126,16.453,92211.250,786.809,10025,0.357,786.809,-2177264.750,-6.35,2.221,0.0,0.0,0.0,0.0,4.60,0.215
10061,2,10061,36,0.110,0.209,0.335,9.926,1.102,53.390,0.5,0.24,0.7,-363.0,0.200,0.258,0.348,9.500,1.300,53.390,0.5,0.29,0.8,-363.0,16.454,92216.320,787.234,16.440,92213.210,787.506,10061,0.335,787.506,-2189743.250,19.383,1.632,0.0,0.0,0.0,0.0,4.73,0.202
10104,2,10104,43,0.78,0.200,0.325,9.883,1.183,53.446,0.4,0.25,0.7,-363.0,0.0,0.186,0.284,9.690,1.227,53.931,0.3,0.25,0.5,-363.0,16.452,92216.171,787.207,16.449,92220.78,787.220,10104,0.325,787.220,-2203969.0,-6.662,2.249,0.0,0.0,0.0,0.0,4.60,0.196
10140,2,10140,36,0.104,0.180,0.371,9.883,1.151,53.519,0.5,0.27,0.6,-363.0,0.258,0.107,0.492,9.836,0.935,53.741,0.7,0.36,0.4,-363.0,16.449,92215.781,787.346,16.444,92216.726,787.947,10140,0.371,787.947,-2216525.0,20.199,1.622,0.0,0.0,0.0,0.0,4.60,0.223
10183,2,10183,43,0.103,0.175,0.373,9.862,1.90,53.528,0.6,0.25,0.6,-363.0,0.7,0.157,0.406,9.938,0.964,53.653,0.9,0.21,0.7,-363.0,16.447,92215.812,787.486,16.449,92217.789,787.947,10183,0.373,787.947,-2232541.250,0.0,2.0,0.0,0.0,0.0,0.0,4.54,0.224
10220,2,10220,37,0.120,0.163,0.377,9.757,1.160,53.595,0.6,0.29,0.6,-363.0,0.136,0.107,0.355,9.821,1.373,53.259,0.5,0.34,0.8,-363.0,16.445,92216.867,787.631,16.444,92216.562,787.536,10220,0.377,787.536,-2246428.750,-11.118,2.500,0.0,0.0,0.0,0.0,4.60,0.227
10261,2,10261,41,0.87,0.163,0.403,9.871,1.180,53.615,0.6,0.28,0.6,-363.0,0.35,0.258,0.477,10.70,1.403,53.493,0.7,0.25,0.4,-363.0,16.449,92216.625,787.618,16.458,92211.984,787.440,10261,0.403,787.440,-2262435.750,-2.328,2.75,0.0,0.0,0.0,0.0,4.60,0.242
10297,2,10297,36,0.114,0.172,0.416,9.871,1.259,53.554,0.6,0.30,0.5,-363.0,0.136,0.229,0.348,9.690,1.622,53.624,0.3,0.33,0.2,-363.0,16.450,92216.593,787.763,16.453,92219.914,787.947,10297,0.416,787.947,-2277188.500,14.78,1.703,0.0,0.0,0.0,0.0,4.60,0.250
10341,2,10341,44,0.96,0.179,0.383,9.812,1.376,53.446,0.6,0.26,0.5,-363.0,0.165,0.143,0.327,9.543,1.520,53.200,0.5,0.19,0.1,-363.0,16.452,92215.398,787.766,16.453,92210.757,787.962,10341,0.383,787.962,-2294777.250,0.332,1.990,0.0,0.0,0.0,0.0,4.60,0.230
10377,2,10377,36,0.116,0.182,0.374,9.625,1.370,53.355,0.6,0.29,0.3,-363.0,0.107,0.172,0.363,9.3,0.935,53.200,0.7,0.33,0.1,-363.0,16.453,92214.0,787.687,16.458,92210.757,787.550,10377,0.374,787.550,-2308418.750,-11.427,2.521,0.0,0.0,0.0,0.0,4.60,0.225
10419,2,10419,42,0.106,0.195,0.367,9.690,1.283,53.370,0.6,0.28,0.2,-363.0,0.86,0.172,0.320,10.143,0.935,53.332,0.7,0.29,0.2,-363.0,16.455,92213.960,787.567,16.453,92216.398,786.933,10419,0.367,786.933,-2324002.0,-14.690,2.788,0.0,0.0,0.0,0.0,4.60,0.221
10455,2,10455,36,0.122,0.179,0.334,9.576,1.104,53.425,0.5,0.29,0.2,-363.0,0.114,0.179,0.312,9.500,0.511,53.770,0.5,0.30,0.3,-363.0,16.454,92214.171,787.775,16.453,92213.46,788.483,10455,0.334,788.483,-2336635.500,43.53,1.436,0.0,0.0,0.0,0.0,4.60,0.201
10532,2,10532,77,0.155,0.173,0.328,9.532,0.964,53.487,0.6,0.28,0.2,-363.0,0.301,0.200,0.320,9.470,0.920,53.931,0.6,0.27,0.4,-363.0,16.456,92213.539,787.709,16.463,92216.726,787.617,10532,0.328,787.617,-2362165.0,-11.255,2.509,0.0,0.0,0.0,0.0,4.60,0.197
10568,2,10568,36,0.129,0.167,0.334,9.584,0.935,53.542,0.6,0.28,0.4,-363.0,0.35,0.114,0.355,9.807,1.373,53.478,0.5,0.21,0.7,-363.0,16.453,92213.820,787.583,16.440,92212.148,787.330,10568,0.334,787.330,-2374100.750,-7.958,2.313,0.0,0.0,0.0,0.0,4.47,0.201
10615,2,10615,47,0.117,0.149,0.337,9.742,0.964,53.604,0.6,0.29,0.4,-363.0,0.50,0.78,0.377,9.792,1.81,53.507,0.7,0.35,0.5,-363.0,16.451,92215.257,787.580,16.444,92217.953,787.536,10615,0.337,787.536,-2389886.0,4.375,1.883,0.0,0.0,0.0,0.0,4.47,0.203
10651,2,10651,36,0.134,0.134,0.334,9.690,0.990,53.650,0.5,0.29,0.5,-363.0,0.172,0.100,0.305,9.880,1.66,53.566,0.4,0.29,0.7,-363.0,16.446,92213.273,787.574,16.431,92206.507,786.903,10651,0.334,786.903,-2401977.0,-17.559,3.113,0.0,0.0,0.0,0.0,4.47,0.201
10693,2,10693,42,0.152,0.139,0.341,9.687,1.154,53.659,0.5,0.28,0.5,-363.0,0.200,0.200,0.348,9.485,1.330,53.814,0.3,0.28,0.1,-363.0,16.443,92213.765,787.467,16.440,92215.500,787.947,10693,0.341,787.947,-2416173.500,24.845,1.572,0.0,0.0,0.0,0.0,4.47,0.205
10729,2,10729,36,0.123,0.147,0.355,9.789,1.195,53.557,0.5,0.27,0.5,-363.0,0.157,0.244,0.391,9.982,1.125,53.420,0.7,0.23,0.3,-363.0,16.441,92211.906,787.450,16.449,92207.406,787.536,10729,0.355,787.536,-2428729.500,-11.427,2.521,0.0,0.0,0.0,0.0,4.41,0.214
10772,2,10772,43,0.145,0.175,0.345,9.845,1.131,53.572,0.5,0.28,0.4,-363.0,0.143,0.251,0.305,10.84,1.52,53.551,0.5,0.27,0.4,-363.0,16.442,92212.328,787.511,16.449,92214.273,787.631,10772,0.345,787.631,-2443819.750,2.221,1.937,0.0,0.0,0.0,0.0,4.47,0.208
10808,2,10808,36,0.165,0.176,0.330,9.941,1.221,53.536,0.5,0.27,0.5,-363.0,0.150,0.86,0.298,10.274,1.534,53.332,0.6,0.26,0.8,-363.0,16.443,92211.835,787.615,16.449,92215.500,788.57,10808,0.330,788.57,-2455988.250,11.834,1.737,0.0,0.0,0.0,0.0,4.41,0.198
10850,2,10850,42,0.165,0.163,0.370,9.926,1.251,53.487,0.5,0.26,0.4,-363.0,0.172,0.35,0.506,9.807,1.213,53.317,0.5,0.26,0.3,-363.0,16.447,92213.640,787.785,16.449,92215.500,787.756,10850,0.370,787.756,-2470697.250,-7.171,2.274,0.0,0.0,0.0,0.0,4.54,0.223
10886,2,10886,36,0.139,0.162,0.366,10.87,1.195,53.396,0.5,0.26,0.4,-363.0,0.71,0.193,0.327,10.289,1.52,53.361,0.4,0.26,0.3,-363.0,16.449,92213.820,787.662,16.449,92216.398,787.330,10886,0.366,787.330,-2483951.0,-11.832,2.550,0.0,0.0,0.0,0.0,4.41,0.220
10933,2,10933,47,0.140,0.114,0.360,10.93,1.183,53.338,0.5,0.26,0.5,-363.0,0.165,0.7,0.363,10.11,1.66,53.127,0.5,0.26,0.6,-363.0,16.449,92216.531,787.539,16.449,92220.976,786.919,10933,0.360,786.919,-2501018.500,-8.752,2.356,0.0,0.0,0.0,0.0,4.54,0.217
10969,2,10969,36,0.133,0.99,0.393,10.134,1.274,53.317,0.5,0.27,0.5,-363.0,0.107,0.172,0.470,10.289,1.505,53.449,0.5,0.31,0.5,-363.0,16.448,92217.484,787.517,16.444,92219.15,787.521,10969,0.393,787.521,-2514582.500,16.732,1.665,0.0,0.0,0.0,0.0,4.47,0.236
11044,2,11044,75,0.114,0.103,0.391,10.64,1.230,53.294,0.5,0.28,0.5,-363.0,0.57,0.107,0.291,9.923,1.315,53.215,0.7,0.31,0.8,-363.0,16.448,92218.703,787.340,16.449,92221.632,787.176,11044,0.391,787.176,-2544025.0,-4.601,2.160,0.0,0.0,0.0,0.0,4.54,0.236
11080,2,11080,36,0.116,0.127,0.360,10.43,1.227,53.285,0.6,0.28,0.6,-363.0,0.179,0.157,0.348,9.704,1.198,53.273,0.9,0.25,0.6,-363.0,16.443,92219.929,787.227,16.426,92221.632,787.191,11080,0.360,787.191,-2557563.0,0.406,1.987,0.0,0.0,0.0,0.0,4.41,0.217
11122,2,11122,42,0.132,0.101,0.377,9.947,1.262,53.308,0.7,0.28,0.5,-363.0,0.150,0.64,0.413,9.807,1.227,53.478,0.11,0.26,0.2,-363.0,16.438,92219.609,787.202,16.421,92214.765,787.205,11122,0.377,787.205,-2573056.0,0.348,1.989,0.0,0.0,0.0,0.0,4.47,0.227
11158,2,11158,36,0.101,0.120,0.371,9.912,1.373,53.300,0.7,0.28,0.6,-363.0,0.14,0.100,0.334,9.836,1.622,53.83,0.5,0.25,0.7,-363.0,16.432,92217.875,787.279,16.421,92212.312,787.301,11158,0.371,787.301,-2586542.500,2.653,1.926,0.0,0.0,0.0,0.0,4.47,0.223
11195,2,11195,37,0.114,0.114,0.350,9.827,1.414,53.279,0.6,0.28,0.5,-363.0,0.172,0.143,0.363,9.865,1.710,53.346,0.0,0.35,0.3,-363.0,16.429,92218.601,787.295,16.426,92222.695,787.602,11195,0.350,787.602,-2599898.750,8.139,1.803,0.0,0.0,0.0,0.0,4.41,0.210
11239,2,11239,44,0.132,0.117,0.350,9.821,1.482,53.291,0.5,0.27,0.4,-363.0,0.143,0.122,0.291,9.894,1.651,53.273,0.2,0.23,0.1,-363.0,16.422,92218.601,787.301,16.417,92221.632,787.205,11239,0.350,787.205,-2615308.250,-9.15,2.370,0.0,0.0,0.0,0.0,4.47,0.210
11275,2,11275,36,0.132,0.137,0.357,9.839,1.522,53.349,0.5,0.26,0.3,-363.0,0.179,0.258,0.384,9.792,1.403,53.566,0.5,0.22,0.2,-363.0,16.421,92218.609,787.424,16.421,92221.632,787.808,11275,0.357,787.808,-2628045.250,16.732,1.665,0.0,0.0,0.0,0.0,4.41,0.215
11317,2,11317,42,0.130,0.186,0.351,9.821,1.540,53.428,0.4,0.27,0.3,-363.0,0.143,0.308,0.384,9.719,1.315,53.873,0.10,0.27,0.4,-363.0,16.421,92219.273,787.484,16.421,92218.117,787.506,11317,0.351,787.506,-2642935.250,-7.171,2.274,0.0,0.0,0.0,0.0,4.47,0.211
11354,2,11354,37,0.241,0.183,0.231,9.760,1.479,53.554,0.6,0.26,0.3,-363.0,0.567,0.86,0.268,9.529,1.315,53.712,0.14,0.22,0.5,-363.0,16.421,92220.437,787.380,16.421,92218.117,786.779,11354,0.231,786.779,-2653715.250,-19.651,3.436,0.0,0.0,0.0,0.0,4.60,0.139
11396,2,11396,42,0.211,0.192,0.202,9.704,1.470,53.548,0.8,0.25,0.3,-363.0,0.21,0.186,0.219,9.587,1.666,53.317,0.8,0.30,0.3,-363.0,16.420,92220.437,787.276,16.421,92222.695,787.80,11396,0.202,787.80,-2662816.500,7.170,1.822,0.0,0.0,0.0,0.0,4.54,0.121
11432,2,11432,36,0.196,0.162,0.239,9.590,1.508,53.469,0.9,0.25,0.4,-363.0,0.71,0.28,0.477,9.324,1.841,52.879,0.9,0.24,0.5,-363.0,16.421,92218.859,787.295,16.421,92213.703,787.301,11432,0.239,787.301,-2670772.500,6.120,1.844,0.0,0.0,0.0,0.0,4.47,0.144
11474,2,11474,42,0.162,0.110,0.264,9.494,1.566,53.420,0.10,0.28,0.4,-363.0,0.7,0.0,0.506,9.310,1.695,53.317,0.9,0.36,0.3,-363.0,16.421,92219.70,787.89,16.421,92222.695,786.779,11474,0.264,786.779,-2681351.0,-12.416,2.593,0.0,0.0,0.0,0.0,4.47,0.159
11523,2,11523,49,0.143,0.122,0.268,9.508,1.616,53.297,0.11,0.27,0.5,-363.0,0.50,0.366,0.406,9.792,1.563,53.259,0.14,0.21,0.7,-363.0,16.421,92219.796,787.1,16.421,92221.796,787.66,11523,0.268,787.66,-2694396.250,5.846,1.850,0.0,0.0,0.0,0.0,4.60,0.161
11565,2,11565,42,0.50,0.130,0.446,9.514,1.707,53.247,0.9,0.28,0.5,-363.0,0.100,0.129,0.621,9.558,1.768,53.463,0.8,0.28,0.7,-363.0,16.420,92220.78,786.998,16.417,92219.507,786.765,11565,0.446,786.765,-2709406.750,-7.170,2.274,0.0,0.0,0.0,0.0,4.60,0.268
11602,2,11602,37,0.50,0.90,0.465,9.535,1.689,53.279,0.10,0.27,0.5,-363.0,0.21,0.14,0.312,9.690,1.578,53.478,0.9,0.27,0.4,-363.0,16.418,92219.648,786.995,16.408,92220.570,787.66,11602,0.465,787.66,-2726269.0,8.139,1.803,0.0,0.0,0.0,0.0,4.60,0.280
11644,2,11644,42,0.76,0.142,0.443,9.532,1.598,53.338,0.9,0.29,0.5,-363.0,0.200,0.229,0.370,9.310,1.388,53.171,0.6,0.31,0.6,-363.0,16.415,92222.398,786.847,16.408,92227.437,786.559,11644,0.443,786.559,-2745349.750,-12.67,2.567,0.0,0.0,0.0,0.0,4.60,0.267
11680,2,11680,36,0.97,0.189,0.453,9.704,1.657,53.297,0.9,0.27,0.4,-363.0,0.114,0.236,0.556,10.172,1.987,53.113,0.8,0.30,0.1,-363.0,16.414,92220.601,786.989,16.417,92213.703,787.492,11680,0.453,787.492,-2761498.0,25.911,1.562,0.0,0.0,0.0,0.0,4.60,0.273
11724,2,11724,44,0.152,0.114,0.442,9.757,1.704,53.355,0.8,0.30,0.3,-363.0,0.323,0.7,0.348,10.55,1.797,53.551,0.7,0.34,0.2,-363.0,16.415,92220.812,786.992,16.426,92222.859,787.80,11724,0.442,787.80,-2781203.0,-9.348,2.389,0.0,0.0,0.0,0.0,4.60,0.266
11760,2,11760,36,0.124,0.91,0.393,9.754,1.686,53.367,0.7,0.29,0.2,-363.0,0.35,0.14,0.377,9.543,1.680,53.522,0.7,0.21,0.2,-363.0,16.414,92222.398,787.14,16.412,92227.437,786.875,11760,0.393,786.875,-2796240.0,-5.713,2.206,0.0,0.0,0.0,0.0,4.60,0.236
11802,2,11802,42,0.159,0.114,0.403,9.698,1.727,53.323,0.6,0.30,0.1,-363.0,0.193,0.100,0.363,9.412,1.783,53.259,0.4,0.33,0.0,-363.0,16.416,92222.398,787.119,16.417,92220.570,787.587,11802,0.403,787.587,-2812969.0,16.964,1.662,0.0,0.0,0.0,0.0,4.60,0.242
11838,2,11838,36,0.113,0.132,0.414,9.786,1.707,53.320,0.7,0.28,0.1,-363.0,0.28,0.315,0.427,9.748,1.286,53.156,0.12,0.22,0.5,-363.0,16.417,92221.234,787.77,16.412,92221.632,786.353,11838,0.414,786.353,-2827695.750,-34.276,-34.348,0.0,0.0,0.0,0.0,4.60,0.249
11881,2,11881,43,0.167,0.133,0.377,9.637,1.657,53.346,0.6,0.28,0.2,-363.0,0.387,0.244,0.370,9.427,1.739,53.244,0.2,0.32,0.5,-363.0,16.416,92222.398,787.14,16.412,92219.507,787.176,11881,0.377,787.176,-2844730.500,19.130,1.635,0.0,0.0,0.0,0.0,4.60,0.227
11917,2,11917,36,0.122,0.178,0.387,9.611,1.578,53.294,0.6,0.27,0.3,-363.0,0.93,0.215,0.399,9.923,1.403,53.288,0.7,0.25,0.4,-363.0,16.412,92222.187,786.989,16.408,92221.796,786.955,11917,0.387,786.955,-2858501.250,-6.135,2.225,0.0,0.0,0.0,0.0,4.54,0.233
11959,2,11959,42,0.162,0.198,0.383,9.707,1.508,53.139,0.6,0.27,0.4,-363.0,0.165,0.114,0.355,10.26,1.330,52.747,0.6,0.25,0.7,-363.0,16.412,92221.54,787.46,16.412,92221.796,787.161,11959,0.383,787.161,-2874687.500,4.897,1.871,0.0,0.0,0.0,0.0,4.54,0.230
11995,2,11995,36,0.119,0.206,0.388,9.877,1.514,53.4,0.6,0.27,0.5,-363.0,0.21,0.143,0.391,10.260,1.812,52.586,0.4,0.28,0.3,-363.0,16.410,92221.765,787.43,16.408,92224.85,787.572,11995,0.388,787.572,-2888587.250,11.425,1.744,0.0,0.0,0.0,0.0,4.60,0.234
12069,2,12069,74,0.155,0.208,0.377,9.891,1.502,52.996,0.5,0.27,0.5,-363.0,0.150,0.323,0.370,9.821,1.227,53.113,0.4,0.27,0.6,-363.0,16.411,92221.648,787.139,16.417,92221.62,786.830,12069,0.377,786.830,-2916946.750,-10.24,2.430,0.0,0.0,0.0,0.0,4.54,0.227
12106,2,12106,37,0.114,0.182,0.384,9.915,1.385,52.958,0.5,0.26,0.5,-363.0,0.186,0.114,0.406,9.543,1.154,53.54,0.6,0.25,0.2,-363.0,16.408,92221.265,787.152,16.394,92217.546,787.242,12106,0.384,787.242,-2931046.750,11.116,1.749,0.0,0.0,0.0,0.0,4.60,0.231
12149,2,12149,43,0.96,0.155,0.366,9.982,1.385,52.882,0.5,0.26,0.4,-363.0,0.0,0.78,0.305,10.260,1.403,52.908,0.6,0.26,0.0,-363.0,16.405,92222.453,787.149,16.394,92227.765,786.940,12149,0.366,786.940,-2947186.250,-7.3,2.265,0.0,0.0,0.0,0.0,4.60,0.220
12186,2,12186,37,0.114,0.147,0.366,9.918,1.479,52.888,0.5,0.27,0.3,-363.0,0.258,0.78,0.355,9.704,1.797,52.776,0.6,0.29,0.3,-363.0,16.401,92222.265,787.209,16.394,92220.898,787.462,12186,0.366,787.462,-2960728.500,14.94,1.702,0.0,0.0,0.0,0.0,4.60,0.220
12228,2,12228,42,0.153,0.159,0.366,9.748,1.379,52.961,0.5,0.27,0.4,-363.0,0.172,0.200,0.391,9.412,1.315,52.952,0.5,0.27,0.8,-363.0,16.400,92220.476,787.187,16.403,92215.93,787.462,12228,0.366,787.462,-2976100.750,0.0,2.0,0.0,0.0,0.0,0.0,4.60,0.220
12264,2,12264,36,0.145,0.113,0.322,9.845,1.446,52.966,0.6,0.26,0.4,-363.0,0.107,0.93,0.154,10.304,1.563,53.142,0.6,0.25,0.5,-363.0,16.397,92219.500,787.313,16.403,92216.156,787.462,12264,0.322,787.462,-2988501.750,0.0,2.0,0.0,0.0,0.0,0.0,4.60,0.194
12312,2,12312,48,0.140,0.97,0.305,9.812,1.563,53.31,0.5,0.27,0.5,-363.0,0.165,0.35,0.320,9.383,1.739,53.376,0.5,0.30,0.11,-363.0,16.399,92221.500,787.237,16.403,92227.601,786.860,12312,0.305,786.860,-3003589.250,-12.537,2.602,0.0,0.0,0.0,0.0,4.60,0.184
12348,2,12348,36,0.137,0.86,0.360,9.573,1.660,53.101,0.5,0.26,0.7,-363.0,0.14,0.21,0.578,9.61,1.885,53.259,0.3,0.21,0.7,-363.0,16.401,92220.343,787.281,16.403,92221.960,787.161,12348,0.360,787.161,-3015576.750,8.351,1.799,0.0,0.0,0.0,0.0,4.54,0.217
12391,2,12391,43,0.119,0.64,0.376,9.552,1.657,53.221,0.4,0.26,0.7,-363.0,0.165,0.28,0.434,9.602,1.783,53.376,0.2,0.26,0.5,-363.0,16.404,92220.554,787.364,16.408,92221.960,787.873,12391,0.376,787.873,-3031407.750,16.570,1.667,0.0,0.0,0.0,0.0,4.60,0.226
12427,2,12427,36,0.97,0.84,0.376,9.590,1.625,53.215,0.4,0.25,0.6,-363.0,0.64,0.301,0.391,9.602,1.154,52.923,0.3,0.24,0.3,-363.0,16.403,92220.93,787.383,16.398,92212.804,787.557,12427,0.376,787.557,-3044945.750,-8.773,2.357,0.0,0.0,0.0,0.0,4.54,0.226
12470,2,12470,43,0.113,0.120,0.444,9.397,1.496,53.241,0.4,0.26,0.6,-363.0,0.186,0.272,0.499,9.339,0.920,53.273,0.7,0.29,0.4,-363.0,16.403,92219.460,787.443,16.403,92212.968,787.763,12470,0.444,787.763,-3062597.750,4.783,1.874,0.0,0.0,0.0,0.0,4.60,0.268
12507,2,12507,37,0.134,0.221,0.243,9.254,1.414,53.247,0.5,0.26,0.5,-363.0,0.272,0.538,0.684,8.667,1.330,53.405,0.9,0.28,0.7,-363.0,16.399,92217.203,787.503,16.385,92216.320,787.161,12507,0.243,787.161,-3075343.250,-16.279,2.954,0.0,0.0,0.0,0.0,4.60,0.146
12582,2,12582,75,0.182,0.246,0.209,9.362,1.286,53.288,0.5,0.28,0.3,-363.0,0.222,0.150,0.406,9.602,1.242,53.463,0.3,0.32,0.2,-363.0,16.397,92217.304,787.535,16.394,92222.453,787.322,12582,0.209,787.322,-3092349.250,2.155,1.939,0.0,0.0,0.0,0.0,4.60,0.126
12618,2,12618,36,0.279,0.175,0.279,9.318,1.274,53.297,0.6,0.27,0.3,-363.0,0.653,0.387,0.786,9.383,1.724,53.420,0.9,0.21,0.4,-363.0,16.392,92216.703,787.406,16.380,92218.937,787.227,12618,0.279,787.227,-3101158.250,-2.653,2.86,0.0,0.0,0.0,0.0,4.47,0.168
12660,2,12660,42,0.287,0.126,0.335,9.207,1.268,53.443,0.6,0.26,0.3,-363.0,0.100,0.57,0.671,9.47,1.125,53.653,0.2,0.21,0.3,-363.0,16.389,92217.703,787.422,16.385,92217.875,787.638,12660,0.335,787.638,-3114088.500,9.794,1.772,0.0,0.0,0.0,0.0,4.60,0.202
12696,2,12696,36,0.209,0.80,0.302,9.166,1.397,53.282,0.6,0.25,0.3,-363.0,0.200,0.43,0.334,9.134,1.563,52.470,0.8,0.23,0.3,-363.0,16.385,92218.875,787.277,16.385,92218.773,787.36,12696,0.302,787.36,-3125585.0,-16.732,3.7,0.0,0.0,0.0,0.0,4.60,0.182
12739,2,12739,43,0.193,0.24,0.467,9.467,1.461,53.253,0.8,0.25,0.2,-363.0,0.193,0.258,0.140,10.172,1.651,53.259,0.18,0.29,0.1,-363.0,16.386,92219.828,787.293,16.389,92221.62,787.242,12739,0.467,787.242,-3142156.750,4.782,1.874,0.0,0.0,0.0,0.0,4.47,0.281
12775,2,12775,36,0.33,0.20,0.495,9.368,1.461,53.145,0.9,0.22,0.4,-363.0,0.581,0.71,0.542,9.105,1.242,52.923,0.11,0.16,0.10,-363.0,16.385,92219.296,787.296,16.385,92219.835,787.337,12775,0.495,787.337,-3159493.750,2.653,1.926,0.0,0.0,0.0,0.0,4.41,0.298
12817,2,12817,42,0.8,0.8,0.420,9.330,1.368,53.69,0.8,0.23,0.4,-363.0,0.445,0.244,0.413,9.193,1.256,53.40,0.3,0.27,0.3,-363.0,16.388,92219.265,787.318,16.398,92218.773,787.337,12817,0.420,787.337,-3178725.250,0.0,2.0,0.0,0.0,0.0,0.0,4.47,0.253
12853,2,12853,36,0.41,0.4,0.347,9.386,1.403,53.2,0.7,0.23,0.4,-363.0,0.64,0.35,0.305,9.324,1.300,53.317,0.2,0.22,0.2,-363.0,16.389,92220.328,787.178,16.389,92223.187,786.940,12853,0.347,786.940,-3192547.500,-11.18,2.493,0.0,0.0,0.0,0.0,4.47,0.209
12896,2,12896,43,0.1,0.27,0.353,9.450,1.344,53.159,0.6,0.22,0.4,-363.0,0.0,0.157,0.363,9.456,1.271,53.259,0.0,0.16,0.3,-363.0,16.393,92220.757,787.178,16.403,92220.898,787.36,12896,0.353,787.36,-3207606.750,2.221,1.937,0.0,0.0,0.0,0.0,4.47,0.212
12932,2,12932,36,0.5,0.37,0.361,9.321,1.327,53.154,0.3,0.24,0.3,-363.0,0.172,0.308,0.183,9.529,1.563,53.230,0.1,0.38,0.0,-363.0,16.394,92220.726,787.222,16.394,92220.898,787.462,12932,0.361,787.462,-3220473.0,11.832,1.738,0.0,0.0,0.0,0.0,4.41,0.217
12974,2,12974,42,0.63,0.452,0.991,9.473,1.379,53.370,0.2,0.23,0.5,-363.0,0.236,2.2,-3.693,9.865,1.505,54.4,0.10,0.14,0.16,-363.0,16.396,92220.46,787.244,16.394,92216.484,787.447,12974,0.991,787.447,-3248900.0,0.348,2.10,0.0,0.0,0.0,0.0,4.47,0.597
13010,2,13010,36,0.5,0.643,-1.14,9.602,1.388,53.405,0.2,0.26,0.2,-363.0,0.100,0.710,0.528,9.836,1.300,53.215,0.0,0.42,0.8,-363.0,16.394,92220.445,787.146,16.389,92220.734,786.845,13010,-1.14,786.845,-3285024.500,-16.732,3.7,0.0,0.0,0.0,0.0,4.54,0.611
13086,2,13086,76,0.40,0.776,-1.80,9.690,1.464,53.361,0.4,0.29,0.2,-363.0,0.165,0.703,0.635,9.763,1.680,53.98,0.8,0.35,0.2,-363.0,16.395,92221.460,787.159,16.394,92228.257,787.6,13086,-1.80,787.6,-3364669.500,2.120,1.940,0.0,0.0,0.0,0.0,4.47,0.651
13122,2,13122,36,0.116,0.710,-1.121,9.865,1.525,53.323,0.7,0.33,0.3,-363.0,0.380,0.172,0.564,10.333,1.578,53.69,0.15,0.37,0.5,-363.0,16.389,92220.429,787.318,16.375,92215.742,787.829,13122,-1.121,787.829,-3404308.500,22.852,1.593,0.0,0.0,0.0,0.0,4.54,0.675
13165,2,13165,43,0.68,0.766,-1.33,9.836,1.493,53.282,0.9,0.30,0.4,-363.0,0.64,0.588,0.254,9.383,1.403,53.25,0.15,0.20,0.7,-363.0,16.384,92221.203,787.391,16.366,92224.742,787.829,13165,-1.33,787.829,-3450636.500,0.0,2.0,0.0,0.0,0.0,0.0,4.47,0.622
13202,2,13202,37,0.150,0.406,0.332,9.850,1.496,53.124,0.8,0.32,0.1,-363.0,0.172,0.200,0.190,9.938,1.520,53.215,0.3,0.28,0.2,-363.0,16.379,92223.85,787.322,16.371,92225.968,787.102,13202,0.332,787.102,-3475918.500,-19.653,3.436,0.0,0.0,0.0,0.0,4.60,0.200
13244,2,13244,42,0.165,0.295,0.312,9.792,1.616,53.78,0.9,0.30,0.3,-363.0,0.172,0.157,0.427,9.543,1.900,52.981,0.5,0.28,0.0,-363.0,16.377,92223.218,787.475,16.380,92221.390,787.609,13244,0.312,787.609,-3489481.750,12.93,1.733,0.0,0.0,0.0,0.0,4.54,0.188
13280,2,13280,36,0.199,0.183,0.272,9.859,1.566,53.80,0.9,0.28,0.4,-363.0,0.337,0.143,0.434,10.99,1.432,53.113,0.6,0.29,0.5,-363.0,16.372,92220.937,787.434,16.366,92216.812,786.801,13280,0.272,786.801,-3500022.0,-22.460,4.65,0.0,0.0,0.0,0.0,4.47,0.164
13317,2,13317,37,0.140,0.255,0.239,9.792,1.569,53.72,0.8,0.26,0.4,-363.0,0.86,0.186,0.399,9.997,1.593,53.25,0.12,0.26,0.6,-363.0,16.371,92222.62,787.288,16.371,92221.390,787.102,13317,0.239,787.102,-3509500.500,8.125,1.804,0.0,0.0,0.0,0.0,4.47,0.144
13360,2,13360,43,0.178,0.143,0.381,9.894,1.572,53.66,0.6,0.28,0.3,-363.0,0.122,0.28,0.456,9.894,1.417,52.996,0.3,0.29,0.3,-363.0,16.374,92220.718,787.143,16.380,92218.31,787.102,13360,0.381,787.102,-3522862.0,0.0,2.0,0.0,0.0,0.0,0.0,4.47,0.229
13396,2,13396,36,0.139,0.110,0.401,9.903,1.522,53.98,0.6,0.28,0.4,-363.0,0.21,0.35,0.291,9.982,1.271,53.376,0.4,0.27,0.4,-363.0,16.373,92219.375,787.181,16.366,92219.257,787.294,13396,0.401,787.294,-3536968.500,5.335,1.862,0.0,0.0,0.0,0.0,4.47,0.242
13438,2,13438,42,0.173,0.100,0.376,9.929,1.520,53.37,0.5,0.27,0.4,-363.0,0.344,0.107,0.298,9.675,1.885,52.674,0.1,0.25,0.3,-363.0,16.369,92218.39,787.261,16.362,92214.679,788.6,13438,0.376,788.6,-3553305.500,16.964,1.662,0.0,0.0,0.0,0.0,4.47,0.226
13474,2,13474,36,0.140,0.122,0.350,9.938,1.566,52.969,0.6,0.26,0.5,-363.0,0.172,0.251,0.305,10.143,1.666,52.776,0.10,0.23,0.8,-363.0,16.367,92216.476,787.461,16.357,92209.39,787.800,13474,0.350,787.800,-3566378.500,-5.713,2.206,0.0,0.0,0.0,0.0,4.41,0.210
13518,2,13518,44,0.143,0.142,0.331,9.824,1.631,52.923,0.5,0.26,0.5,-363.0,0.100,0.287,0.305,9.427,1.914,52.791,0.7,0.25,0.6,-363.0,16.365,92215.382,787.743,16.362,92215.906,788.513,13518,0.331,788.513,-3581377.250,16.195,1.673,0.0,0.0,0.0,0.0,4.47,0.199
13567,2,13567,49,0.159,0.178,0.289,9.698,1.674,52.961,0.5,0.26,0.5,-363.0,0.200,0.208,0.248,9.266,1.636,53.186,0.2,0.30,0.5,-363.0,16.361,92216.117,787.902,16.357,92221.710,787.896,13567,0.289,787.896,-3596603.250,-12.593,2.607,0.0,0.0,0.0,0.0,4.54,0.174
13608,2,13608,41,0.202,0.202,0.299,9.769,1.698,52.905,0.6,0.26,0.5,-363.0,0.193,0.157,0.341,10.333,1.388,53.98,0.10,0.26,0.4,-363.0,16.358,92216.390,787.915,16.352,92220.648,787.359,13608,0.299,787.359,-3608695.750,-13.89,2.646,0.0,0.0,0.0,0.0,4.60,0.180
13645,2,13645,37,0.175,0.193,0.298,9.865,1.631,52.978,0.8,0.26,0.5,-363.0,0.208,0.64,0.291,10.157,1.549,53.40,0.9,0.27,0.2,-363.0,16.355,92217.585,787.770,16.348,92220.648,787.279,13645,0.298,787.279,-3619768.0,-2.170,2.69,0.0,0.0,0.0,0.0,4.60,0.179
13693,2,13693,48,0.149,0.163,0.337,9.622,1.619,53.80,0.7,0.27,0.4,-363.0,0.43,0.100,0.499,8.930,1.607,53.288,0.7,0.28,0.4,-363.0,16.353,92219.914,787.706,16.348,92220.648,787.485,13693,0.337,787.485,-3635027.750,4.285,1.886,0.0,0.0,0.0,0.0,4.60,0.203
13729,2,13729,36,0.621,0.482,0.693,10.254,1.531,53.177,0.5,0.14,0.0,-363.0,-3.754,1.880,-2.85,12.584,1.476,53.273,0.1,0.40,0.22,-363.0,16.351,92221.539,787.421,16.348,92224.0,787.88,13729,0.693,787.88,-3653579.250,-11.20,2.493,0.0,0.0,0.0,0.0,4.54,0.417
13772,2,13772,43,0.637,0.433,0.714,15.659,1.183,52.700,0.5,0.15,0.0,-363.0,0.122,0.35,0.355,36.290,0.102,50.803,0.3,0.33,0.6,-363.0,16.349,92219.734,787.320,16.348,92212.718,787.389,13772,0.714,787.389,-3683856.250,7.4,1.826,0.0,0.0,0.0,0.0,4.60,0.430
13808,2,13808,36,0.643,0.446,0.759,22.31,1.283,51.932,0.4,0.17,0.1,-363.0,0.165,0.222,0.564,42.195,1.885,49.254,0.4,0.37,0.2,-363.0,16.351,92220.164,787.205,16.362,92222.773,786.786,13808,0.759,786.786,-3710393.0,-16.762,3.11,0.0,0.0,0.0,0.0,4.47,0.457
13851,2,13851,43,0.681,0.416,0.766,27.366,1.61,51.388,0.4,0.14,0.0,-363.0,0.14,0.86,0.327,36.831,0.438,50.321,0.8,0.12,0.6,-363.0,16.351,92219.882,787.107,16.352,92219.257,786.786,13851,0.766,786.786,-3743201.0,0.0,2.0,0.0,0.0,0.0,0.0,4.60,0.461
13887,2,13887,36,0.440,0.175,0.716,30.239,0.695,51.140,0.6,0.7,0.2,-363.0,1.249,-1.105,0.248,23.297,0.219,52.46,0.18,0.4,0.17,-363.0,16.353,92220.273,786.926,16.357,92222.617,786.580,13887,0.716,786.580,-3769893.0,-5.711,2.206,0.0,0.0,0.0,0.0,4.60,0.431
13929,2,13929,42,0.351,0.48,0.463,31.292,0.795,50.932,0.53,0.9,0.134,-363.0,0.208,1.249,0.822,17.845,1.973,52.236,0.235,0.125,0.640,-363.0,16.357,92220.242,786.846,16.366,92223.835,786.690,13929,0.463,786.690,-3794672.0,2.623,1.927,0.0,0.0,0.0,0.0,4.47,0.279
13965,2,13965,36,0.167,0.195,0.203,27.611,0.382,51.318,0.2,0.6,0.214,-363.0,0.796,0.696,0.943,17.889,-2.163,52.733,0.276,0.111,0.405,-363.0,16.362,92222.890,786.767,16.371,92225.968,786.991,13965,0.203,786.991,-3806685.250,8.365,1.799,0.0,0.0,0.0,0.0,4.54,0.122
14008,2,14008,43,0.476,0.348,0.191,20.438,1.859,51.940,0.2,0.70,0.138,-363.0,1.708,-2.498,1.409,6.328,9.266,52.367,0.28,0.360,0.375,-363.0,16.362,92223.320,786.811,16.362,92224.906,787.6,14008,0.191,787.6,-3806959.0,0.340,1.989,0.0,0.0,0.0,0.0,4.60,0.115
14044,2,14044,36,0.149,0.188,0.379,14.834,3.607,52.437,0.3,0.11,0.255,-363.0,-1.622,0.717,0.613,8.813,9.178,52.806,0.24,0.283,-1.965,-363.0,16.365,92222.828,786.877,16.371,92216.812,787.117,14044,0.379,787.117,-3796696.250,3.75,1.915,0.0,0.0,0.0,0.0,4.60,0.228
14119,2,14119,75,1.348,-1.691,2.535,11.672,4.542,52.651,0.0,0.125,0.851,-363.0,7.243,-8.621,10.533,7.483,4.457,53.113,0.36,0.565,-2.964,-363.0,16.368,92221.484,787.181,16.371,92215.906,788.102,14119,2.535,788.102,-3687397.0,13.132,1.717,0.0,0.0,0.0,0.0,4.60,1.527
14155,2,14155,36,0.683,-1.770,2.627,9.380,4.460,52.937,0.79,0.69,-1.709,-363.0,-3.115,0.854,0.363,6.387,1.563,53.668,0.159,0.405,-3.647,-363.0,16.365,92219.445,787.425,16.352,92213.617,787.911,14155,2.627,787.911,-3594464.0,-5.306,2.189,0.0,0.0,0.0,0.0,4.60,1.582
14197,2,14197,42,0.839,-2.295,2.562,9.280,4.621,53.83,0.8,0.26,-2.291,-363.0,0.14,-1.931,0.620,17.392,-1.359,53.463,0.78,0.102,-2.502,-363.0,16.364,92216.515,787.631,16.366,92211.328,788.21,14197,2.562,788.21,-3485469.500,2.623,1.927,0.0,0.0,0.0,0.0,4.60,1.543
14233,2,14233,36,1.112,-1.473,2.208,12.768,1.607,53.113,0.3,0.0,-2.620,-363.0,3.72,1.615,0.363,23.764,-5.802,52.513,0.49,0.229,-2.23,-363.0,16.365,92212.851,787.818,16.366,92206.585,787.939,14233,2.208,787.939,-3399591.500,-2.259,2.72,0.0,0.0,0.0,0.0,4.60,1.330
14276,2,14276,43,1.43,-1.378,1.975,16.813,-2.19,52.926,0.4,0.71,-2.242,-363.0,-1.966,1.191,0.549,29.41,-8.959,51.870,0.18,0.69,0.76,-363.0,16.368,92212.390,787.941,16.385,92214.515,787.734,14276,1.975,787.734,-3309639.750,-4.783,2.167,0.0,0.0,0.0,0.0,4.60,1.190
14312,2,14312,36,0.241,0.368,0.166,20.309,-4.562,52.654,0.1,0.22,-1.674,-363.0,0.818,0.114,0.176,24.963,-8.257,51.753,0.4,0.98,0.122,-363.0,16.370,92212.789,787.829,16.380,92217.875,787.543,14312,0.166,787.543,-3277074.750,-5.306,2.189,0.0,0.0,0.0,0.0,4.60,0.100
14354,2,14354,42,0.407,0.403,0.192,21.96,-5.776,52.472,0.22,0.66,-1.25,-363.0,0.129,1.26,0.492,10.318,-4.501,52.762,0.40,0.36,0.400,-363.0,16.375,92213.828,787.857,16.380,92218.773,788.50,14354,0.192,788.50,-3284608.250,12.68,1.734,0.0,0.0,0.0,0.0,4.54,0.115
14390,2,14390,36,0.344,0.746,0.502,18.500,-5.922,52.575,0.1,0.99,0.519,-363.0,0.330,0.215,0.930,4.413,-2.90,53.975,0.25,0.63,0.25,-363.0,16.378,92215.304,787.759,16.380,92218.773,787.528,14390,0.502,787.528,-3297112.500,-14.487,2.768,0.0,0.0,0.0,0.0,4.54,0.302
14434,2,14434,44,0.183,0.522,0.529,16.331,-5.594,52.703,0.1,0.54,0.112,-363.0,0.430,0.495,0.499,12.920,-4.165,53.156,0.37,0.4,0.10,-363.0,16.383,92216.609,787.616,16.389,92213.132,787.227,14434,0.529,787.227,-3319818.250,-6.845,2.258,0.0,0.0,0.0,0.0,4.60,0.319
14470,2,14470,36,0.242,0.420,0.489,13.458,-4.954,52.946,0.4,0.42,0.95,-363.0,0.165,0.681,0.348,14.674,-5.758,53.83,0.2,0.9,0.9,-363.0,16.385,92216.546,787.679,16.394,92214.195,788.50,14470,0.489,788.50,-3338163.0,22.854,1.593,0.0,0.0,0.0,0.0,4.54,0.294
14512,2,14512,42,0.17,0.338,0.518,10.798,-4.294,53.247,0.13,0.27,0.72,-363.0,0.480,0.294,0.320,11.663,-4.954,53.259,0.41,0.21,0.5,-363.0,16.386,92215.609,787.762,16.389,92213.132,787.954,14512,0.518,787.954,-3359324.0,-2.274,2.73,0.0,0.0,0.0,0.0,4.60,0.312
14548,2,14548,36,0.18,0.150,0.274,9.3,-3.621,53.522,0.8,0.40,0.81,-363.0,0.122,0.86,0.727,1.344,-1.140,54.136,0.14,0.104,0.368,-363.0,16.387,92214.226,787.825,16.385,92211.906,788.365,14548,0.274,788.365,-3373585.750,11.427,1.744,0.0,0.0,0.0,0.0,4.60,0.165
14624,2,14624,76,0.22,0.203,0.183,10.663,-4.241,53.402,0.4,0.28,0.58,-363.0,0.351,0.50,0.477,12.715,-5.188,53.376,0.39,0.0,0.91,-363.0,16.391,92212.703,787.825,16.398,92211.164,787.528,14624,0.183,787.528,-3390982.0,-11.18,2.493,0.0,0.0,0.0,0.0,4.54,0.110
14661,2,14661,37,0.61,0.268,0.162,9.652,-4.68,53.493,0.5,0.19,0.67,-363.0,0.236,0.818,0.391,7.863,-3.303,53.610,0.41,0.35,0.617,-363.0,16.388,92212.273,787.882,16.375,92211.0,787.513,14661,0.162,787.513,-3397379.500,0.410,2.12,0.0,0.0,0.0,0.0,4.54,0.97
14703,2,14703,42,0.0,0.45,0.142,7.500,-3.504,53.724,0.7,0.20,0.69,-363.0,0.473,0.430,0.248,3.916,-2.937,54.238,0.13,0.13,0.0,-363.0,16.385,92212.101,787.759,16.375,92213.296,787.433,14703,0.142,787.433,-3403767.250,-1.912,2.60,0.0,0.0,0.0,0.0,4.47,0.85
14739,2,14739,36,0.58,0.90,0.193,6.477,-3.156,53.820,0.18,0.26,0.76,-363.0,0.186,0.71,0.578,6.547,-3.215,53.741,0.11,0.47,0.38,-363.0,16.384,92212.101,787.673,16.385,92213.132,787.528,14739,0.193,787.528,-3409811.0,2.653,1.926,0.0,0.0,0.0,0.0,4.41,0.116
14782,2,14782,43,0.78,0.577,0.340,7.380,-3.422,53.764,0.28,0.6,0.168,-363.0,0.222,2.519,0.4,5.860,-2.470,53.858,0.34,0.9,0.95,-363.0,16.385,92213.257,787.550,16.394,92217.710,787.748,14782,0.340,787.748,-3421289.750,5.124,1.866,0.0,0.0,0.0,0.0,4.47,0.204
14818,2,14818,36,0.502,0.536,0.41,5.565,-3.326,53.949,0.1,0.34,0.254,-363.0,1.765,0.150,1.15,3.639,-4.706,54.296,0.106,0.137,0.518,-363.0,16.383,92214.578,787.553,16.385,92217.710,787.543,14818,0.41,787.543,-3428160.500,-5.713,2.206,0.0,0.0,0.0,0.0,4.47,0.25
14861,2,14861,43,0.534,0.364,0.21,4.948,-2.747,54.10,0.4,0.44,0.162,-363.0,0.394,0.43,0.291,4.779,0.409,53.916,0.25,0.13,0.161,-363.0,16.385,92214.289,787.619,16.385,92209.617,787.844,14861,0.21,787.844,-3429514.500,7.4,1.826,0.0,0.0,0.0,0.0,4.60,0.12
14897,2,14897,36,0.486,0.498,0.53,5.261,-2.826,53.992,0.1,0.40,0.162,-363.0,0.236,0.236,0.406,5.480,-3.332,54.150,0.42,0.6,0.2,-363.0,16.386,92214.476,787.745,16.385,92214.195,788.64,14897,0.53,788.64,-3430855.0,6.120,1.844,0.0,0.0,0.0,0.0,4.47,0.31
14939,2,14939,42,0.620,0.552,0.25,5.422,-2.920,54.133,0.5,0.22,0.168,-363.0,0.480,0.200,0.442,7.351,-3.683,54.443,0.29,0.40,0.69,-363.0,16.388,92214.937,787.707,16.394,92215.421,787.337,14939,0.25,787.337,-3432509.250,-17.315,3.80,0.0,0.0,0.0,0.0,4.47,0.15
14975,2,14975,36,0.677,0.67,0.9,5.68,-3.171,54.256,0.2,0.15,0.171,-363.0,0.509,0.93,0.74,4.92,-3.726,54.472,0.21,0.29,0.109,-363.0,16.387,92213.562,787.790,16.389,92210.843,788.160,14975,0.9,788.160,-3433152.0,22.854,1.593,0.0,0.0,0.0,0.0,4.47,0.5
15024,2,15024,49,0.333,0.5,0.317,5.135,-2.642,54.182,0.35,0.9,0.67,-363.0,0.43,0.459,0.521,3.975,-2.60,53.931,0.58,0.13,0.1,-363.0,16.389,92212.421,787.729,16.394,92212.70,787.242,15024,0.317,787.242,-3441167.250,-18.740,3.284,0.0,0.0,0.0,0.0,4.47,0.191
15060,2,15060,36,0.74,0.269,0.142,5.153,-2.899,54.811,0.52,0.16,0.65,-363.0,0.897,1.277,0.584,4.866,-1.695,57.59,0.111,0.20,0.152,-363.0,16.389,92213.140,787.647,16.385,92213.132,787.433,15060,0.142,787.433,-3449433.500,5.306,1.862,0.0,0.0,0.0,0.0,4.41,0.85
15136,2,15136,76,0.881,0.300,0.193,5.211,-2.981,55.963,0.45,0.16,0.77,-363.0,4.271,0.387,1.273,5.773,-3.741,59.909,0.5,0.7,0.57,-363.0,16.388,92213.437,787.638,16.380,92215.742,788.21,15136,0.193,788.21,-3447462.250,7.740,1.811,0.0,0.0,0.0,0.0,4.41,0.116
15172,2,15172,36,0.982,0.473,0.211,5.594,-3.393,56.886,0.26,0.10,0.76,-363.0,0.983,1.69,0.355,9.266,-5.743,59.61,0.64,0.10,0.63,-363.0,16.382,92212.828,787.899,16.362,92212.390,788.638,15172,0.211,788.638,-3440171.250,17.140,1.660,0.0,0.0,0.0,0.0,4.47,0.127
15214,2,15214,42,0.954,0.384,0.152,7.301,-3.934,57.632,0.11,0.8,0.50,-363.0,0.373,0.351,0.219,12.627,-6.430,58.199,0.56,0.17,0.19,-363.0,16.377,92212.898,787.772,16.366,92211.164,787.528,15214,0.152,787.528,-3432539.500,-26.423,5.824,0.0,0.0,0.0,0.0,4.41,0.91
15250,2,15250,36,0.971,0.634,0.420,7.959,-4.98,58.693,0.8,0.27,0.48,-363.0,0.129,0.789,0.821,7.263,-2.879,59.237,0.47,0.83,0.13,-363.0,16.374,92212.437,788.73,16.380,92209.781,788.748,15250,0.420,788.748,-3422225.0,33.888,1.495,0.0,0.0,0.0,0.0,4.47,0.253
15293,2,15293,43,1.157,0.623,0.244,8.430,-4.460,59.283,0.16,0.13,0.17,-363.0,0.28,1.220,0.298,7.220,-3.507,60.11,0.14,0.50,0.2,-363.0,16.373,92212.476,788.70,16.375,92213.296,787.417,15293,0.244,787.417,-3407929.250,-30.946,14.963,0.0,0.0,0.0,0.0,4.47,0.147
15329,2,15329,36,0.281,0.696,0.133,8.889,-4.580,59.163,0.19,0.1,0.10,-363.0,0.107,0.753,0.614,8.67,-4.340,59.310,0.10,0.69,0.26,-363.0,16.372,92213.328,788.98,16.375,92220.0,788.160,15329,0.133,788.160,-3405936.0,20.623,1.617,0.0,0.0,0.0,0.0,4.41,0.80
15371,2,15371,42,0.205,0.588,0.193,8.211,-4.150,59.456,0.16,0.19,0.17,-363.0,0.602,0.531,0.657,5.875,-3.595,60.523,0.46,0.80,0.93,-363.0,16.374,92213.507,787.981,16.375,92213.296,788.50,15371,0.193,788.50,-3412806.250,-2.623,2.85,0.0,0.0,0.0,0.0,4.60,0.116
15407,2,15407,36,0.198,0.633,0.229,7.196,-3.747,59.754,0.22,0.30,0.51,-363.0,0.337,0.129,0.399,7.556,-4.413,59.690,0.87,0.37,0.152,-363.0,16.377,92214.570,788.44,16.380,92216.484,787.844,15407,0.229,787.844,-3420426.500,-5.713,2.206,0.0,0.0,0.0,0.0,4.54,0.138
15450,2,15450,43,0.193,0.416,0.400,6.886,-3.773,59.944,0.31,0.61,0.63,-363.0,0.107,0.294,0.32,5.714,-3.10,60.187,0.3,0.71,0.47,-363.0,16.378,92215.703,787.945,16.385,92215.421,788.255,15450,0.400,788.255,-3433973.250,9.566,1.776,0.0,0.0,0.0,0.0,4.34,0.241
15486,2,15486,36,0.251,0.290,0.403,6.629,-3.858,59.883,0.31,0.61,0.61,-363.0,0.315,0.588,0.312,5.933,-3.931,59.704,0.18,0.50,0.14,-363.0,16.380,92215.460,788.11,16.385,92212.70,787.748,15486,0.403,787.748,-3448441.750,-14.80,2.731,0.0,0.0,0.0,0.0,4.60,0.242
15528,2,15528,42,0.206,0.279,0.376,6.191,-3.566,60.70,0.31,0.63,0.56,-363.0,0.330,0.703,0.477,5.875,-2.879,60.245,0.9,0.78,0.5,-363.0,16.380,92212.710,787.907,16.375,92206.257,787.638,15528,0.376,787.638,-3464809.0,-2.623,2.85,0.0,0.0,0.0,0.0,4.54,0.226
15564,2,15564,36,0.81,0.290,0.312,6.94,-3.510,60.43,0.29,0.71,0.59,-363.0,0.21,0.581,0.341,5.393,-3.317,60.391,0.33,0.121,0.107,-363.0,16.381,92212.210,787.847,16.380,92210.843,787.748,15564,0.312,787.748,-3477210.0,3.60,1.915,0.0,0.0,0.0,0.0,4.47,0.188
15619,2,15619,55,0.386,0.50,0.261,5.746,-3.332,60.154,0.21,0.80,0.44,-363.0,1.859,-1.830,0.140,5.817,-3.522,60.245,0.48,0.81,0.74,-363.0,16.382,92210.203,787.822,16.385,92206.421,787.720,15619,0.261,787.720,-3492997.500,0.522,2.15,0.0,0.0,0.0,0.0,4.60,0.157
15655,2,15655,36,0.590,0.492,0.345,6.50,-3.425,60.93,0.15,0.77,0.23,-363.0,1.127,-2.505,0.456,7.234,-3.478,59.880,0.31,0.57,0.56,-363.0,16.379,92211.109,787.657,16.371,92220.0,787.433,15655,0.345,787.433,-3503925.500,-7.975,2.314,0.0,0.0,0.0,0.0,4.41,0.208
15697,2,15697,42,0.516,0.702,0.266,6.427,-3.291,60.73,0.4,0.58,0.22,-363.0,0.50,0.459,0.81,7.819,-3.259,59.602,0.84,0.43,0.19,-363.0,16.379,92212.945,787.715,16.385,92221.226,788.35,15697,0.266,788.35,-3516795.500,14.354,1.698,0.0,0.0,0.0,0.0,4.54,0.160
15733,2,15733,36,0.525,0.684,0.219,6.240,-3.326,60.108,0.13,0.55,0.23,-363.0,0.287,0.789,0.241,4.940,-3.54,60.420,0.34,0.62,0.9,-363.0,16.380,92214.328,787.756,16.380,92213.132,787.844,15733,0.219,787.844,-3525552.750,-5.320,2.189,0.0,0.0,0.0,0.0,4.41,0.132
15777,2,15777,44,0.735,0.638,0.245,6.503,-3.384,59.976,0.16,0.32,0.6,-363.0,1.26,0.811,0.470,6.708,-3.610,59.733,0.18,0.4,0.24,-363.0,16.380,92213.859,787.674,16.380,92208.554,787.337,15777,0.245,787.337,-3535782.250,-11.520,2.528,0.0,0.0,0.0,0.0,4.60,0.147
15814,2,15814,37,0.432,0.264,0.404,7.97,-3.762,59.862,0.18,0.11,0.10,-363.0,0.344,0.43,0.937,8.783,-5.407,59.675,0.41,0.21,0.9,-363.0,16.380,92214.539,787.759,16.385,92209.781,788.145,15814,0.404,788.145,-3547810.500,21.840,1.604,0.0,0.0,0.0,0.0,4.54,0.243
15855,2,15855,41,0.248,0.364,0.328,6.664,-3.428,59.953,0.8,0.1,0.13,-363.0,0.208,0.638,0.75,5.71,-1.812,60.333,0.15,0.10,0.60,-363.0,16.383,92212.492,787.921,16.385,92209.781,788.241,15855,0.328,788.241,-3562846.250,2.341,1.934,0.0,0.0,0.0,0.0,4.54,0.197
15891,2,15891,36,0.202,0.424,0.426,6.290,-3.390,60.154,0.6,0.7,0.24,-363.0,0.279,0.157,0.406,5.948,-3.69,60.610,0.7,0.3,0.38,-363.0,16.383,92208.859,787.964,16.385,92203.70,788.255,15891,0.426,788.255,-3576436.0,0.393,1.988,0.0,0.0,0.0,0.0,4.54,0.256
15935,2,15935,44,6.871,-8.740,0.792,6.261,-3.358,60.201,1.78,0.167,0.58,-363.0,33.56,-45.37,-2.71,4.793,-2.893,60.654,5.323,0.864,0.176,-363.0,16.383,92209.328,787.984,16.380,92215.421,787.939,15935,0.792,787.939,-3603247.750,-7.178,2.274,0.0,0.0,0.0,0.0,4.60,0.477
15971,2,15971,36,7.197,-8.708,0.734,8.848,-2.955,60.473,1.80,0.199,0.44,-363.0,2.656,0.969,0.183,19.643,-1.593,61.93,0.29,0.160,0.42,-363.0,16.383,92210.484,788.22,16.380,92214.359,787.528,15971,0.734,787.528,-3630740.750,-11.427,2.521,0.0,0.0,0.0,0.0,4.60,0.442
16013,2,16013,42,7.452,-8.904,0.436,10.105,-2.265,61.93,1.41,0.234,0.90,-363.0,1.622,0.933,0.555,15.68,-1.958,62.774,0.153,0.154,0.217,-363.0,16.383,92210.515,787.940,16.385,92209.937,787.734,16013,0.436,787.734,-3655338.750,4.897,1.871,0.0,0.0,0.0,0.0,4.54,0.262
16049,2,16049,36,7.540,-8.980,0.513,12.14,-2.458,61.525,1.22,0.264,0.92,-363.0,0.646,0.258,0.463,14.615,-2.776,62.496,0.76,0.142,0.72,-363.0,16.381,92210.976,787.879,16.375,92212.70,787.939,16049,0.513,787.939,-3672443.0,5.713,1.853,0.0,0.0,0.0,0.0,4.54,0.309
16092,2,16092,43,7.883,-8.879,0.485,13.870,-2.531,61.952,1.18,0.275,0.76,-363.0,1.435,0.344,0.262,15.229,-3.434,62.744,0.29,0.55,0.42,-363.0,16.379,92214.148,787.937,16.375,92218.937,788.542,16092,0.485,788.542,-3693922.750,14.21,1.703,0.0,0.0,0.0,0.0,4.54,0.292
16167,2,16167,75,1.415,0.479,0.621,18.941,-4.288,63.270,0.213,0.118,0.15,-363.0,0.717,1.758,-2.753,30.152,-11.677,67.246,0.834,0.80,0.126,-363.0,16.376,92214.273,787.884,16.366,92216.70,787.675,16167,0.621,787.675,-3735425.250,-11.563,2.531,0.0,0.0,0.0,0.0,4.60,0.374
16203,2,16203,36,1.875,1.468,-1.692,20.552,-6.313,64.954,0.87,0.108,0.21,-363.0,4.953,5.915,-5.538,27.696,-11.721,69.511,1.534,0.108,0.13,-363.0,16.370,92215.984,788.20,16.348,92222.937,788.212,16203,-1.692,788.212,-3777080.0,14.909,1.690,0.0,0.0,0.0,0.0,4.60,-1.19
16245,2,16245,42,1.553,1.775,-1.899,23.34,-7.187,65.600,0.95,0.89,0.31,-363.0,0.14,0.602,0.477,27.477,-6.328,66.4,0.117,0.60,0.48,-363.0,16.363,92216.54,788.34,16.352,92210.265,787.800,16245,-1.899,787.800,-3852510.250,-9.794,2.416,0.0,0.0,0.0,0.0,4.54,-1.144
16281,2,16281,36,1.600,1.784,-1.775,25.112,-8.424,66.749,0.86,0.57,0.42,-363.0,0.882,0.301,0.153,25.7,-8.959,68.240,0.119,0.16,0.20,-363.0,16.358,92215.695,788.6,16.348,92210.265,787.800,16281,-1.775,787.800,-3918663.750,0.0,2.0,0.0,0.0,0.0,0.0,4.54,-1.69
16331,2,16331,50,1.293,1.817,-1.820,27.328,-9.368,67.705,0.87,0.30,0.36,-363.0,0.100,0.509,0.485,26.308,-8.155,67.524,0.23,0.83,0.16,-363.0,16.353,92213.960,787.874,16.352,92210.265,787.881,16331,-1.820,787.881,-4008569.250,1.606,1.954,0.0,0.0,0.0,0.0,4.60,-1.96
16367,2,16367,36,0.954,0.763,-1.975,27.430,-9.70,67.883,0.640,0.194,0.4,-363.0,0.976,-3.510,-3.528,30.663,-10.187,68.137,1.926,0.904,0.79,-363.0,16.350,92213.960,787.959,16.348,92216.70,788.102,16367,-1.975,788.102,-4076893.500,6.135,1.844,0.0,0.0,0.0,0.0,4.54,-1.189
16410,2,16410,43,0.625,-1.394,0.867,28.675,-8.181,66.980,0.352,0.168,0.17,-363.0,-2.950,-4.874,0.2,33.922,-7.278,64.995,0.98,0.23,0.52,-363.0,16.349,92212.335,788.57,16.343,92214.843,788.704,16410,0.867,788.704,-4138007.0,13.996,1.704,0.0,0.0,0.0,0.0,4.60,0.522
16446,2,16446,36,0.536,-1.477,0.888,29.722,-8.444,66.913,0.378,0.170,0.26,-363.0,0.459,0.186,0.585,32.709,-7.643,65.667,0.9,0.73,0.5,-363.0,16.350,92213.500,787.994,16.357,92216.70,787.485,16446,0.888,787.485,-4169609.0,-33.857,-62.585,0.0,0.0,0.0,0.0,4.47,0.535
16489,2,16489,43,0.424,-1.556,-1.39,31.388,-8.44,66.372,0.404,0.183,0.20,-363.0,1.442,0.93,0.600,33.338,-6.957,65.536,0.12,0.47,0.6,-363.0,16.350,92214.453,788.54,16.348,92215.7,788.102,16489,-1.39,788.102,-4211060.0,14.348,1.699,0.0,0.0,0.0,0.0,4.54,0.626
16525,2,16525,36,0.264,-1.692,-1.10,32.718,-7.795,66.18,0.401,0.207,0.15,-363.0,0.703,0.172,0.341,32.958,-6.913,65.755,0.38,0.37,0.40,-363.0,16.349,92215.859,787.975,16.348,92217.296,787.485,16525,-1.10,787.485,-4247959.500,-17.139,3.58,0.0,0.0,0.0,0.0,4.54,0.608
16567,2,16567,42,0.837,0.262,-1.370,33.741,-7.287,65.323,0.365,0.0,0.10,-363.0,4.529,3.639,-5.330,35.779,-7.643,64.659,-1.910,0.140,0.52,-363.0,16.349,92215.187,787.890,16.348,92212.718,787.675,16567,-1.370,787.675,-4297973.500,4.534,1.880,0.0,0.0,0.0,0.0,4.60,0.825
16604,2,16604,37,2.124,0.432,-1.617,35.384,-8.672,64.805,0.603,0.17,0.66,-363.0,3.488,-1.399,-1.231,42.136,-14.206,62.408,-1.92,0.105,0.230,-363.0,16.348,92214.765,787.706,16.339,92212.718,787.786,16604,-1.617,787.786,-4353268.500,2.992,1.917,0.0,0.0,0.0,0.0,4.41,0.974
16680,2,16680,76,2.256,0.248,-1.204,36.974,-9.660,64.36,0.583,0.15,0.57,-363.0,1.119,0.732,1.481,40.660,-12.584,61.824,0.110,0.83,0.39,-363.0,16.344,92212.578,787.818,16.339,92205.117,788.43,16680,-1.204,788.43,-4460519.0,3.385,1.907,0.0,0.0,0.0,0.0,4.60,0.725
16716,2,16716,36,2.199,1.257,0.717,38.523,-10.648,63.174,0.538,0.11,0.49,-363.0,1.155,4.953,1.833,41.84,-11.897,61.224,0.238,0.67,0.37,-363.0,16.336,92212.171,787.768,16.306,92213.46,787.851,16716,0.717,787.851,-4495118.500,-5.321,2.189,0.0,0.0,0.0,0.0,4.54,0.432
16759,2,16759,43,1.816,1.55,-1.220,40.850,-11.365,61.715,0.230,0.65,0.33,-363.0,-1.213,-1.184,-2.854,44.592,-10.494,58.462,1.500,0.234,0.38,-363.0,16.331,92212.31,787.899,16.325,92216.562,788.139,16759,-1.220,788.139,-4536785.500,6.676,1.833,0.0,0.0,0.0,0.0,4.41,0.735
16795,2,16795,36,0.903,0.611,0.745,42.908,-11.672,60.26,0.17,0.33,0.5,-363.0,0.35,1.421,-2.954,46.68,-9.178,56.211,0.671,0.356,0.87,-363.0,16.326,92212.101,787.852,16.320,92213.46,787.440,16795,0.745,787.440,-4572160.500,-19.400,3.392,0.0,0.0,0.0,0.0,4.34,0.448
16838,2,16838,43,0.545,0.419,0.822,43.355,-10.982,58.985,0.95,0.125,0.49,-363.0,1.701,-2.361,-1.619,44.372,-10.757,57.205,0.702,0.353,0.42,-363.0,16.323,92211.289,787.824,16.325,92208.632,787.646,16838,0.822,787.646,-4605863.500,4.782,1.874,0.0,0.0,0.0,0.0,4.47,0.495
16875,2,16875,37,0.340,0.567,-1.200,44.191,-10.850,58.111,0.79,0.102,0.40,-363.0,0.93,0.7,0.406,44.840,-11.926,57.453,0.30,0.31,0.5,-363.0,16.318,92212.898,787.706,16.316,92213.210,787.455,16875,-1.200,787.455,-4643283.500,-5.161,2.183,0.0,0.0,0.0,0.0,4.41,0.722
16920,2,16920,45,0.279,0.410,-1.724,44.732,-10.762,57.424,0.26,0.100,0.30,-363.0,0.854,0.64,0.786,43.788,-11.458,57.790,0.25,0.57,0.8,-363.0,16.322,92212.937,787.665,16.325,92213.210,787.646,16920,-1.724,787.646,-4709080.500,4.243,1.887,0.0,0.0,0.0,0.0,4.34,-1.38
16957,2,16957,37,0.597,0.45,-1.294,44.776,-11.11,57.173,0.276,0.141,0.40,-363.0,0.373,0.638,0.707,44.811,-11.736,57.205,0.14,0.27,0.86,-363.0,16.322,92213.148,787.586,16.325,92217.625,787.741,16957,-1.294,787.741,-4764933.500,2.581,1.928,0.0,0.0,0.0,0.0,4.47,0.780
17002,2,17002,45,0.793,0.216,0.779,44.615,-11.525,57.345,0.133,0.68,0.15,-363.0,0.947,0.567,0.377,45.264,-11.750,57.73,0.42,0.8,0.37,-363.0,16.320,92212.960,787.646,16.311,92212.140,787.741,17002,0.779,787.741,-4811607.500,0.0,2.0,0.0,0.0,0.0,0.0,4.41,0.469
17038,2,17038,36,0.528,0.252,0.502,44.814,-11.692,57.290,0.0,0.3,0.6,-363.0,0.373,0.14,0.233,45.366,-11.590,56.927,0.35,0.28,0.0,-363.0,16.317,92213.421,787.703,16.306,92210.921,787.933,17038,0.502,787.933,-4834681.500,5.321,1.862,0.0,0.0,0.0,0.0,4.47,0.302
17088,2,17088,50,0.460,0.961,-1.739,44.858,-11.666,57.263,0.182,0.78,0.8,-363.0,-4.852,-6.65,-6.594,45.59,-11.794,57.322,0.943,0.439,0.81,-363.0,16.317,92214.367,787.697,16.316,92217.945,787.426,17088,-1.739,787.426,-4890740.500,-10.147,2.437,0.0,0.0,0.0,0.0,4.41,-1.48
17124,2,17124,36,0.544,0.920,-1.653,45.150,-11.540,57.50,0.201,0.71,0.9,-363.0,0.437,0.272,0.355,45.249,-10.830,56.723,0.73,0.91,0.14,-363.0,16.314,92213.703,787.774,16.311,92209.851,788.28,17124,-1.653,788.28,-4951828.500,16.747,1.665,0.0,0.0,0.0,0.0,4.47,0.996
17622,2,17622,498,0.498,-1.12,-1.577,45.56,-11.458,57.155,0.200,0.60,0.26,-363.0,0.602,0.179,0.327,44.343,-11.327,57.731,0.19,0.29,0.0,-363.0,16.310,92213.359,787.727,16.306,92215.960,787.509,17622,-1.577,787.509,-5756486.500,-1.42,2.32,0.0,0.0,0.0,0.0,4.54,0.950
17659,2,17659,37,0.544,-1.55,-1.609,44.951,-11.397,57.202,0.192,0.52,0.18,-363.0,0.717,0.351,0.535,44.738,-11.444,57.307,0.1,0.27,0.1,-363.0,16.283,92213.328,787.668,16.173,92211.960,787.442,17659,-1.609,787.442,-5815447.0,-1.804,2.57,0.0,0.0,0.0,0.0,4.54,0.969
17713,2,17713,54,0.496,0.997,-1.652,44.823,-11.344,57.313,0.196,0.55,0.19,-363.0,0.610,0.272,0.449,44.723,-11.327,57.483,0.18,0.15,0.3,-363.0,16.261,92213.78,787.715,16.196,92209.671,788.169,17713,-1.652,788.169,-5903513.0,13.457,1.712,0.0,0.0,0.0,0.0,4.54,0.995
17749,2,17749,36,0.524,0.64,0.502,44.720,-11.283,57.310,0.0,0.32,0.4,-363.0,0.251,0.753,0.844,44.548,-11.487,57.307,0.39,0.0,0.5,-363.0,16.238,92212.703,787.749,16.205,92216.54,787.596,17749,0.502,787.596,-5942299.0,-15.920,2.914,0.0,0.0,0.0,0.0,4.54,0.302
17792,2,17792,43,0.480,0.28,0.519,44.621,-11.429,57.544,0.19,0.18,0.6,-363.0,0.222,0.93,0.442,44.752,-11.560,57.892,0.20,0.21,0.24,-363.0,16.220,92213.664,787.764,16.219,92214.664,788.103,17792,0.519,788.103,-5964272.500,11.801,1.738,0.0,0.0,0.0,0.0,4.60,0.313
17828,2,17828,36,0.416,0.37,0.611,44.580,-11.400,57.512,0.26,0.19,0.7,-363.0,0.279,0.150,0.786,44.139,-11.180,57.570,0.55,0.34,0.5,-363.0,16.204,92213.656,787.721,16.224,92215.890,787.295,17828,0.611,787.295,-5984633.0,-22.460,4.65,0.0,0.0,0.0,0.0,4.54,0.368
17870,2,17870,42,0.426,0.488,0.482,44.624,-11.406,57.509,0.19,0.14,0.23,-363.0,0.768,2.979,0.110,44.957,-11.473,57.293,0.34,0.2,0.80,-363.0,16.216,92213.734,787.936,16.233,92212.382,788.515,17870,0.482,788.515,-6007603.0,29.46,1.534,0.0,0.0,0.0,0.0,4.60,0.290
17906,2,17906,36,0.416,0.513,0.483,44.524,-11.555,57.445,0.5,0.12,0.30,-363.0,0.559,0.401,0.456,44.226,-12.72,57.161,0.54,0.4,0.34,-363.0,16.224,92215.195,787.925,16.238,92216.953,788.117,17906,0.483,788.117,-6024991.500,-11.50,2.495,0.0,0.0,0.0,0.0,4.60,0.291
17949,2,17949,43,0.430,0.625,0.406,44.545,-11.619,57.445,0.3,0.24,0.34,-363.0,0.323,0.193,0.456,44.650,-11.809,57.307,0.5,0.57,0.27,-363.0,16.229,92214.242,787.947,16.233,92211.312,787.706,17949,0.406,787.706,-6044125.0,-9.554,2.401,0.0,0.0,0.0,0.0,4.54,0.244
17985,2,17985,36,0.571,0.643,0.384,44.565,-11.604,57.345,0.2,0.27,0.29,-363.0,0.926,0.179,0.334,44.855,-11.487,57.395,0.29,0.40,0.1,-363.0,16.231,92214.703,787.829,16.228,92216.953,787.515,17985,0.384,787.515,-6058361.0,-5.320,2.189,0.0,0.0,0.0,0.0,4.54,0.231
18027,2,18027,42,0.602,0.620,0.367,44.665,-11.698,57.313,0.9,0.28,0.25,-363.0,0.437,0.265,0.700,44.636,-11.648,57.410,0.18,0.35,0.11,-363.0,16.234,92213.562,787.870,16.238,92210.250,787.500,18027,0.367,787.500,-6074155.500,0.337,2.10,0.0,0.0,0.0,0.0,4.54,0.221
18063,2,18063,36,0.536,0.66,0.496,44.583,-11.797,57.360,0.1,0.29,0.7,-363.0,0.437,0.208,0.535,44.548,-11.970,57.527,0.18,0.11,0.87,-363.0,16.233,92213.562,787.731,16.228,92212.382,787.816,18063,0.496,787.816,-6089709.500,8.758,1.791,0.0,0.0,0.0,0.0,4.41,0.299
18107,2,18107,44,0.502,0.33,0.459,44.665,-11.765,57.401,0.6,0.32,0.12,-363.0,0.387,0.236,0.269,44.636,-11.911,57.366,0.29,0.19,0.9,-363.0,16.233,92213.148,787.627,16.238,92214.828,787.596,18107,0.459,787.596,-6110741.0,-4.995,2.176,0.0,0.0,0.0,0.0,4.54,0.276
18143,2,18143,36,0.486,0.216,0.416,44.536,-11.818,57.462,0.2,0.30,0.20,-363.0,0.244,-1.442,0.241,44.7,-12.72,57.614,0.24,0.45,0.10,-363.0,16.233,92213.812,787.627,16.233,92214.664,787.706,18143,0.416,787.706,-6126501.500,3.60,1.915,0.0,0.0,0.0,0.0,4.60,0.250
18186,2,18186,43,0.446,0.162,0.433,44.548,-11.864,57.497,0.6,0.39,0.16,-363.0,0.725,0.452,0.420,44.913,-11.721,57.570,0.14,0.84,0.16,-363.0,16.236,92213.140,787.583,16.242,92213.601,787.295,18186,0.433,787.295,-6144771.0,-9.565,2.402,0.0,0.0,0.0,0.0,4.54,0.261
18255,2,18255,69,0.356,0.199,0.400,44.419,-11.780,57.562,0.8,0.42,0.6,-363.0,0.14,0.452,0.535,43.992,-11.224,57.731,0.7,0.49,0.105,-363.0,16.236,92213.171,787.599,16.238,92210.414,787.582,18255,0.400,787.582,-6173542.500,4.160,1.889,0.0,0.0,0.0,0.0,4.54,0.241
18291,2,18291,36,0.399,0.218,0.367,44.405,-11.631,57.608,0.9,0.51,0.22,-363.0,0.653,0.114,0.370,44.475,-11.224,57.760,0.14,0.57,0.7,-363.0,16.234,92213.0,787.615,16.219,92211.476,787.898,18291,0.367,787.898,-6187365.0,8.773,1.791,0.0,0.0,0.0,0.0,4.60,0.221
18334,2,18334,43,0.534,0.225,0.495,44.405,-11.505,57.629,0.1,0.52,0.27,-363.0,1.62,0.200,0.908,44.636,-11.283,57.468,0.9,0.25,0.34,-363.0,16.230,92212.992,787.739,16.219,92214.828,788.213,18334,0.495,788.213,-6205912.500,7.345,1.819,0.0,0.0,0.0,0.0,4.54,0.298
18370,2,18370,36,0.457,0.81,0.505,44.539,-11.309,57.643,0.4,0.48,0.36,-363.0,0.136,0.93,0.291,44.679,-11.93,57.687,0.7,0.23,0.36,-363.0,16.228,92213.695,787.777,16.224,92218.179,787.898,18370,0.505,787.898,-6223921.500,-8.773,2.357,0.0,0.0,0.0,0.0,4.54,0.304
18412,2,18412,42,0.488,0.58,0.512,44.469,-11.169,57.673,0.2,0.42,0.47,-363.0,0.875,0.337,0.456,44.562,-11.20,57.717,0.27,0.54,0.71,-363.0,16.225,92212.359,787.939,16.224,92206.898,788.103,18412,0.512,788.103,-6245293.500,4.897,1.871,0.0,0.0,0.0,0.0,4.47,0.308
18448,2,18448,36,0.653,0.139,0.482,44.527,-11.113,57.708,0.6,0.35,0.65,-363.0,0.811,0.50,0.384,44.285,-10.947,57.907,0.37,0.15,0.193,-363.0,16.223,92212.296,787.903,16.228,92210.93,787.404,18448,0.482,787.404,-6263199.0,-19.415,3.395,0.0,0.0,0.0,0.0,4.54,0.290
18491,2,18491,43,0.587,0.101,0.869,44.551,-11.84,57.734,0.13,0.29,0.94,-363.0,0.323,-1.91,-2.308,44.592,-11.78,57.892,0.21,0.27,0.135,-363.0,16.226,92212.515,788.7,16.233,92212.539,788.418,18491,0.869,788.418,-6292272.0,23.575,1.585,0.0,0.0,0.0,0.0,4.60,0.524
18527,2,18527,36,0.786,0.107,0.740,44.504,-10.982,57.898,0.38,0.38,0.94,-363.0,2.60,0.172,0.262,44.402,-10.771,58.287,0.114,0.70,0.37,-363.0,16.228,92212.15,787.988,16.233,92212.382,788.117,18527,0.740,788.117,-6321264.0,-8.366,2.335,0.0,0.0,0.0,0.0,4.60,0.446
18569,2,18569,42,0.934,0.104,0.602,44.317,-10.844,57.968,0.67,0.41,0.87,-363.0,0.602,0.107,0.397,43.744,-10.406,58.38,0.139,0.38,0.1,-363.0,16.228,92211.804,787.950,16.224,92217.117,787.706,18569,0.602,787.706,-6349480.0,-9.781,2.415,0.0,0.0,0.0,0.0,4.47,0.363
18605,2,18605,36,0.781,0.252,0.591,44.258,-10.651,58.47,0.73,0.37,0.75,-363.0,0.107,0.401,0.399,44.270,-10.55,58.111,0.54,0.35,0.10,-363.0,16.230,92212.687,787.911,16.233,92211.312,787.911,18605,0.591,787.911,-6370977.500,5.698,1.854,0.0,0.0,0.0,0.0,4.54,0.356
18648,2,18648,43,0.740,0.249,0.601,44.288,-10.456,58.129,0.62,0.44,0.44,-363.0,0.610,0.35,0.434,44.431,-9.967,58.316,0.16,0.49,0.39,-363.0,16.230,92213.632,788.32,16.228,92214.828,788.8,18648,0.601,788.8,-6396624.500,2.246,1.936,0.0,0.0,0.0,0.0,4.54,0.362
18685,2,18685,37,0.829,0.40,0.203,44.177,-10.254,58.132,0.55,0.50,0.20,-369.399,0.768,0.43,0.320,44.36,-10.70,57.907,0.16,0.58,0.14,-395.0,16.227,92215.437,787.890,16.219,92221.531,787.706,18685,0.203,787.706,-6411521.500,-8.155,2.323,0.0,0.0,0.0,0.0,4.47,0.122
18727,2,18727,42,0.611,0.189,0.152,44.4,-10.125,58.21,0.14,0.45,0.30,-369.399,0.969,1.320,0.4,43.539,-10.128,57.731,0.235,0.47,0.219,-363.0,16.227,92214.546,787.848,16.228,92207.960,787.911,18727,0.152,787.911,-6418994.500,4.884,1.872,0.0,0.0,0.0,0.0,4.47,0.91
18774,2,18774,47,0.534,0.251,0.325,44.33,-10.152,57.988,0.32,0.36,0.5,-375.799,0.215,0.416,0.470,43.890,-10.537,57.877,0.49,0.6,0.125,-395.0,16.227,92214.125,787.925,16.224,92214.992,788.88,18774,0.325,788.88,-6430225.0,3.764,1.898,0.0,0.0,0.0,0.0,4.41,0.196
18818,2,18818,44,0.694,0.318,0.353,43.838,-10.260,57.927,0.41,0.27,0.7,-375.799,0.911,0.64,0.535,43.291,-10.596,57.804,0.13,0.11,0.1,-363.0,16.224,92213.953,787.979,16.219,92210.414,788.184,18818,0.353,788.184,-6445160.500,2.170,1.938,0.0,0.0,0.0,0.0,4.34,0.212
18854,2,18854,36,0.726,0.196,0.343,43.887,-10.350,57.816,0.47,0.15,0.16,-375.799,0.768,0.646,0.384,44.679,-10.420,57.760,0.49,0.9,0.4,-363.0,16.221,92212.148,787.976,16.215,92205.835,787.993,18854,0.343,787.993,-6457690.500,-5.291,2.188,0.0,0.0,0.0,0.0,4.47,0.206
18896,2,18896,42,0.656,0.192,0.368,43.873,-10.426,57.877,0.43,0.1,0.15,-369.399,0.416,0.64,0.449,43.963,-10.450,58.213,0.3,0.25,0.17,-363.0,16.220,92210.171,787.869,16.215,92211.640,787.170,18896,0.368,787.170,-6472640.500,-19.587,3.425,0.0,0.0,0.0,0.0,4.47,0.222
18932,2,18932,36,0.630,0.77,0.436,43.908,-10.464,58.15,0.0,0.10,0.65,-369.399,0.839,0.28,0.341,43.715,-10.318,58.418,0.17,0.2,0.189,-363.0,16.218,92210.875,787.927,16.219,92211.476,788.199,18932,0.436,788.199,-6487134.500,28.566,1.538,0.0,0.0,0.0,0.0,4.54,0.262
18975,2,18975,43,0.730,0.162,0.416,44.28,-10.453,58.111,0.11,0.13,0.54,-363.0,0.717,0.7,0.370,44.489,-10.479,58.360,0.7,0.20,0.68,-363.0,16.217,92210.414,787.889,16.219,92212.703,787.898,18975,0.416,787.898,-6505465.500,-7.4,2.266,0.0,0.0,0.0,0.0,4.47,0.250
19011,2,19011,36,0.818,1.618,0.518,44.98,-10.342,58.164,0.48,0.40,0.51,-363.0,1.349,8.836,-1.45,43.642,-10.40,58.67,0.169,0.144,0.13,-363.0,16.217,92210.171,787.974,16.219,92209.187,788.610,19011,0.518,788.610,-6522285.500,19.794,1.627,0.0,0.0,0.0,0.0,4.105,0.312
19053,2,19053,42,0.880,2.846,1.289,44.147,-10.628,58.56,0.172,0.45,0.68,-363.0,1.76,5.498,8.653,44.928,-11.853,57.220,0.671,0.32,0.80,-363.0,16.220,92211.539,787.977,16.228,92212.703,788.8,19053,1.289,788.8,-6506091.0,-14.343,2.755,0.0,0.0,0.0,0.0,4.137,0.776
19089,2,19089,36,1.559,3.4,1.435,44.185,-11.40,57.860,0.175,0.2,0.55,-363.0,3.811,0.725,0.282,44.153,-12.510,57.234,0.10,0.188,0.45,-363.0,16.221,92211.257,788.145,16.219,92210.250,788.8,19089,1.435,788.8,-6457038.500,0.0,2.0,0.0,0.0,0.0,0.0,4.137,0.864
19132,2,19132,43,1.165,2.946,1.378,44.308,-11.531,57.757,0.216,0.18,0.52,-363.0,-1.127,0.323,0.628,44.329,-12.774,57.907,0.224,0.99,0.173,-363.0,16.223,92211.15,788.84,16.228,92210.250,787.898,19132,1.378,787.898,-6396534.500,-2.562,2.83,0.0,0.0,0.0,0.0,4.144,0.830
19168,2,19168,36,0.587,3.267,1.323,44.291,-12.81,57.772,0.203,0.35,0.111,-363.0,-2.175,1.600,0.643,44.402,-13.227,58.433,0.58,0.64,0.361,-363.0,16.224,92210.734,788.87,16.224,92211.312,787.911,19168,1.323,787.911,-6347895.500,0.376,1.988,0.0,0.0,0.0,0.0,4.157,0.797
19210,2,19210,42,0.422,1.511,1.575,44.460,-12.516,57.798,0.148,0.68,0.127,-369.399,0.524,0.57,0.211,44.489,-12.218,58.199,0.104,0.23,0.67,-395.0,16.225,92211.414,788.27,16.224,92212.539,788.309,19210,1.575,788.309,-6287019.500,9.472,1.778,0.0,0.0,0.0,0.0,4.163,0.948
19247,2,19247,37,0.269,0.460,0.272,44.454,-12.633,57.965,0.6,0.91,0.131,-369.399,0.315,0.244,0.585,44.899,-12.437,58.53,0.40,0.83,0.102,-363.0,16.224,92211.132,787.884,16.224,92211.312,787.295,19247,0.272,787.295,-6262926.0,-27.413,6.630,0.0,0.0,0.0,0.0,4.150,0.164
19315,2,19315,68,0.389,0.311,0.429,44.399,-12.639,58.64,0.12,0.60,0.140,-369.399,0.516,0.21,0.499,43.876,-12.540,57.731,0.43,0.34,0.0,-363.0,16.225,92211.687,787.815,16.224,92213.23,787.662,19315,0.429,787.662,-6286789.500,5.402,1.860,0.0,0.0,0.0,0.0,4.163,0.258
19352,2,19352,37,0.45,0.522,0.410,44.355,-12.551,58.187,0.26,0.49,0.99,-375.799,1.48,0.732,0.535,44.109,-12.335,58.520,0.25,0.43,0.35,-395.0,16.221,92212.203,787.853,16.210,92212.867,788.88,19352,0.410,788.88,-6302324.0,11.514,1.743,0.0,0.0,0.0,0.0,4.163,0.247
19394,2,19394,42,0.561,0.356,0.416,44.343,-12.437,58.284,0.26,0.38,0.20,-382.200,0.401,0.768,0.671,44.343,-12.657,58.915,0.56,0.7,0.32,-395.0,16.219,92211.820,787.847,16.215,92209.351,787.882,19394,0.416,787.882,-6319686.0,-4.897,2.172,0.0,0.0,0.0,0.0,4.163,0.250
19430,2,19430,36,1.185,0.77,0.894,43.992,-12.440,58.512,0.64,0.2,0.8,-382.200,3.646,-2.110,-2.179,42.736,-12.233,59.339,0.295,0.155,0.75,-395.0,16.217,92211.148,787.781,16.215,92209.187,787.978,19430,0.894,787.978,-6343277.0,2.653,1.926,0.0,0.0,0.0,0.0,4.157,0.538
19485,2,19485,55,1.237,0.399,-1.263,43.230,-11.990,58.947,0.62,0.32,0.41,-388.600,0.574,-1.363,-2.430,41.84,-10.187,60.230,0.28,0.91,0.62,-395.0,16.216,92212.617,787.937,16.215,92218.664,788.73,19485,-1.263,788.73,-6402612.500,1.736,1.950,0.0,0.0,0.0,0.0,4.157,0.761
19521,2,19521,36,1.293,0.323,-1.233,42.645,-11.479,59.406,0.59,0.32,0.61,-388.600,0.796,0.358,0.348,40.952,-9.982,60.26,0.57,0.34,0.101,-363.0,16.212,92213.718,787.918,16.205,92218.507,787.567,19521,-1.233,787.567,-6447549.0,-14.80,2.731,0.0,0.0,0.0,0.0,4.157,0.742
19564,2,19564,43,1.129,0.420,-1.191,42.128,-10.970,59.719,0.55,0.36,0.55,-382.200,0.229,0.244,0.327,41.522,-9.792,60.84,0.46,0.20,0.3,-363.0,16.212,92214.382,787.813,16.210,92216.218,787.567,19564,-1.191,787.567,-6499680.0,0.0,2.0,0.0,0.0,0.0,0.0,4.163,0.717
19600,2,19600,36,1.171,0.512,-1.129,41.370,-10.546,60.5,0.31,0.27,0.56,-375.799,0.610,0.308,0.363,40.558,-10.537,60.347,0.62,0.55,0.38,-363.0,16.212,92215.546,787.791,16.215,92215.156,787.772,19600,-1.129,787.772,-6541464.0,5.713,1.853,0.0,0.0,0.0,0.0,4.163,0.680
19642,2,19642,42,0.483,0.38,0.829,40.897,-10.108,60.266,0.24,0.8,0.81,-369.399,0.208,0.646,0.678,40.368,-10.40,60.640,0.15,0.24,0.199,-363.0,16.211,92215.359,787.772,16.210,92208.289,787.882,19642,0.829,787.882,-6582614.0,2.623,1.927,0.0,0.0,0.0,0.0,4.150,0.499
19678,2,19678,36,0.413,0.432,0.427,40.774,-10.108,60.336,0.24,0.36,0.64,-369.399,0.222,0.602,0.420,40.470,-10.187,60.581,0.26,0.49,0.21,-395.0,16.210,92214.421,787.797,16.210,92213.929,788.199,19678,0.427,788.199,-6605248.500,8.789,1.791,0.0,0.0,0.0,0.0,4.163,0.257
19722,2,19722,44,0.264,0.348,0.463,40.713,-10.14,60.438,0.11,0.54,0.47,-369.399,0.50,0.57,0.528,40.646,-9.514,60.537,0.8,0.124,0.16,-363.0,16.210,92213.257,787.861,16.205,92212.703,787.882,19722,0.463,787.882,-6624859.0,-7.191,2.275,0.0,0.0,0.0,0.0,4.150,0.279
19758,2,19758,36,0.358,0.412,0.477,40.496,-10.5,60.561,0.3,0.71,0.47,-369.399,0.703,0.559,0.399,40.441,-9.748,60.698,0.28,0.102,0.1,-363.0,16.210,92211.421,787.864,16.210,92207.62,787.582,19758,0.477,787.582,-6641808.500,-8.351,2.334,0.0,0.0,0.0,0.0,4.163,0.287
19827,2,19827,69,0.103,1.164,0.765,40.315,-9.885,60.695,0.18,0.86,0.37,-375.799,0.667,4.70,-1.798,39.652,-9.938,61.20,0.11,0.131,0.7,-395.0,16.210,92210.796,787.820,16.215,92211.960,787.552,19827,0.765,787.552,-6684696.0,0.424,2.12,0.0,0.0,0.0,0.0,4.170,0.460
19863,2,19863,36,0.229,0.779,0.648,40.222,-9.847,60.663,0.12,0.78,0.2,-382.200,0.839,-1.277,0.97,39.900,-9.850,60.479,0.14,0.14,0.3,-395.0,16.205,92211.953,787.858,16.187,92214.85,788.73,19863,0.648,788.73,-6710147.500,14.472,1.697,0.0,0.0,0.0,0.0,4.163,0.390
19905,2,19905,42,0.111,0.643,0.658,40.248,-9.850,60.657,0.2,0.58,0.2,-382.200,0.366,0.78,0.470,40.602,-10.201,60.552,0.24,0.51,0.2,-395.0,16.203,92212.437,787.789,16.196,92216.375,787.854,19905,0.658,787.854,-6737610.0,-5.233,2.186,0.0,0.0,0.0,0.0,4.163,0.396
19941,2,19941,36,0.180,0.798,0.624,40.166,-9.976,60.704,0.0,0.44,0.1,-388.600,0.394,0.717,0.355,40.236,-10.143,60.771,0.1,0.56,0.2,-395.0,16.202,92212.929,787.808,16.201,92215.156,787.978,19941,0.624,787.978,-6760710.0,3.451,1.906,0.0,0.0,0.0,0.0,4.163,0.376
19984,2,19984,43,0.268,0.650,0.611,40.172,-10.64,60.727,0.5,0.39,0.2,-388.600,1.141,0.179,0.334,40.470,-10.187,60.815,0.3,0.73,0.3,-363.0,16.201,92214.335,787.783,16.205,92214.85,787.457,19984,0.611,787.457,-6787283.0,-12.116,2.571,0.0,0.0,0.0,0.0,4.163,0.368
20020,2,20020,36,0.548,0.179,0.318,40.324,-10.5,60.724,0.9,0.13,0.2,-388.600,0.732,0.78,0.334,40.412,-9.646,61.5,0.5,0.3,0.3,-395.0,16.199,92214.328,787.846,16.205,92211.960,787.868,20020,0.318,787.868,-6804025.500,11.411,1.744,0.0,0.0,0.0,0.0,4.170,0.191
20062,2,20062,42,0.419,0.126,0.386,40.391,-9.988,60.853,0.8,0.18,0.2,-388.600,0.193,0.251,0.434,40.236,-9.763,61.122,0.10,0.10,0.3,-395.0,16.202,92214.367,787.903,16.201,92214.250,788.361,20062,0.386,788.361,-6818825.0,11.733,1.739,0.0,0.0,0.0,0.0,4.163,0.232
20098,2,20098,36,0.577,0.166,0.376,40.336,-9.959,60.993,0.3,0.36,0.3,-388.600,0.423,0.122,0.420,40.324,-10.55,61.254,0.0,0.37,0.6,-395.0,16.202,92212.781,787.966,16.196,92208.445,788.169,20098,0.376,788.169,-6832544.0,-5.321,2.189,0.0,0.0,0.0,0.0,4.163,0.226
20142,2,20142,44,0.633,0.11,0.386,40.438,-9.944,61.8,0.4,0.31,0.5,-388.600,0.674,0.57,0.406,40.748,-10.70,60.844,0.2,0.32,0.13,-395.0,16.202,92211.929,787.980,16.201,92210.898,788.45,20142,0.386,788.45,-6849311.500,-2.824,2.92,0.0,0.0,0.0,0.0,4.163,0.232
20178,2,20178,36,0.516,0.40,0.411,40.380,-9.885,61.99,0.4,0.20,0.6,-395.0,0.559,0.35,0.463,40.178,-9.894,61.268,0.3,0.18,0.7,-395.0,16.199,92211.750,788.78,16.192,92213.187,787.949,20178,0.411,787.949,-6863676.500,-2.653,2.86,0.0,0.0,0.0,0.0,4.163,0.248
20220,2,20220,42,0.482,0.83,0.424,40.429,-9.903,61.119,0.4,0.24,0.7,-395.0,0.559,0.136,0.399,40.660,-9.733,61.107,0.8,0.19,0.6,-395.0,16.195,92211.992,787.990,16.187,92213.187,787.428,20220,0.424,787.428,-6881249.500,-12.417,2.593,0.0,0.0,0.0,0.0,4.163,0.255
20256,2,20256,36,0.522,0.44,0.414,40.444,-9.918,61.49,0.3,0.27,0.6,-395.0,0.394,0.57,0.384,40.309,-9.836,60.771,0.5,0.28,0.1,-395.0,16.193,92211.781,787.848,16.187,92213.187,787.648,20256,0.414,787.648,-6896364.0,6.120,1.844,0.0,0.0,0.0,0.0,4.163,0.249
20299,2,20299,43,0.544,0.12,0.393,40.426,-9.812,60.917,0.4,0.27,0.6,-395.0,0.531,0.35,0.312,40.236,-9.529,60.596,0.1,0.38,0.5,-395.0,16.192,92213.429,787.763,16.192,92216.703,787.744,20299,0.393,787.744,-6913738.500,2.221,1.937,0.0,0.0,0.0,0.0,4.157,0.236
20361,2,20361,62,0.506,0.25,0.384,40.304,-9.830,61.26,0.5,0.25,0.4,-388.600,0.488,0.7,0.363,40.134,-10.157,61.385,0.11,0.19,0.2,-363.0,16.189,92213.500,787.675,16.187,92211.218,787.605,20361,0.384,787.605,-6937855.0,-2.240,2.72,0.0,0.0,0.0,0.0,4.163,0.231
20404,2,20404,43,0.499,0.25,0.278,40.359,-9.839,60.967,0.6,0.29,0.4,-388.600,0.524,0.35,0.67,40.456,-9.938,60.976,0.4,0.38,0.6,-395.0,16.184,92214.15,787.587,16.169,92215.796,787.509,20404,0.278,787.509,-6952111.500,-2.221,2.71,0.0,0.0,0.0,0.0,4.163,0.167
20440,2,20440,36,0.528,0.12,0.262,40.412,-9.786,60.859,0.5,0.31,0.3,-388.600,0.703,0.57,0.320,40.923,-9.470,60.567,0.4,0.32,0.2,-395.0,16.181,92214.960,787.704,16.169,92217.921,788.16,20440,0.262,788.16,-6961850.500,14.78,1.703,0.0,0.0,0.0,0.0,4.163,0.158
20482,2,20482,42,0.548,0.17,0.261,40.590,-9.818,60.891,0.6,0.28,0.4,-388.600,0.495,0.35,0.377,41.201,-9.997,60.932,0.10,0.13,0.7,-395.0,16.178,92216.375,787.696,16.173,92220.210,787.605,20482,0.261,787.605,-6972851.0,-9.793,2.416,0.0,0.0,0.0,0.0,4.176,0.157
20519,2,20519,37,0.502,0.12,0.281,40.648,-9.877,61.26,0.7,0.25,0.4,-388.600,0.301,0.114,0.413,40.529,-9.821,61.268,0.4,0.24,0.3,-395.0,16.175,92215.492,787.731,16.178,92212.281,787.920,20519,0.281,787.920,-6982887.500,8.535,1.796,0.0,0.0,0.0,0.0,4.163,0.169
20561,2,20561,42,0.528,0.11,0.289,40.771,-9.754,60.973,0.5,0.28,0.5,-395.0,0.617,0.0,0.406,40.748,-9.543,61.122,0.2,0.34,0.6,-395.0,16.172,92215.703,787.753,16.173,92212.281,787.715,20561,0.289,787.715,-6994883.0,-4.895,2.172,0.0,0.0,0.0,0.0,4.176,0.174
20597,2,20597,36,0.542,0.17,0.360,40.909,-9.660,60.906,0.5,0.25,0.4,-395.0,0.595,0.7,0.284,41.142,-9.470,60.640,0.6,0.23,0.3,-395.0,16.171,92215.453,787.775,16.164,92214.570,787.618,20597,0.360,787.618,-7006586.500,-2.683,2.87,0.0,0.0,0.0,0.0,4.163,0.217
20639,2,20639,42,0.503,0.35,0.377,41.28,-9.812,61.28,0.6,0.24,0.6,-395.0,0.509,0.35,0.406,41.522,-10.230,61.180,0.7,0.25,0.8,-395.0,16.172,92216.398,787.528,16.173,92222.664,786.782,20639,0.377,786.782,-7022079.500,-19.910,3.483,0.0,0.0,0.0,0.0,4.163,0.227
20675,2,20675,36,0.511,0.34,0.374,41.40,-9.748,60.990,0.5,0.25,0.5,-395.0,0.531,0.28,0.363,41.259,-9.675,60.742,0.5,0.21,0.3,-395.0,16.170,92216.218,787.424,16.159,92219.312,787.83,20675,0.374,787.83,-7035617.500,8.365,1.799,0.0,0.0,0.0,0.0,4.176,0.225
20718,2,20718,43,0.559,0.8,0.370,41.183,-9.754,60.961,0.5,0.27,0.5,-395.0,0.545,0.14,0.391,41.245,-9.850,61.122,0.4,0.32,0.5,-395.0,16.167,92217.171,787.399,16.164,92217.23,787.796,20718,0.370,787.796,-7051633.500,16.570,1.667,0.0,0.0,0.0,0.0,4.163,0.223
20755,2,20755,37,0.551,0.17,0.368,41.353,-9.865,60.868,0.5,0.27,0.4,-395.0,0.574,0.43,0.399,41.596,-10.99,60.654,0.3,0.33,0.3,-395.0,16.162,92218.148,787.330,16.150,92217.187,787.370,20755,0.368,787.370,-7065308.500,-11.497,2.526,0.0,0.0,0.0,0.0,4.163,0.222
20798,2,20798,43,0.557,0.18,0.387,41.192,-9.853,60.967,0.4,0.27,0.4,-395.0,0.624,0.0,0.377,40.339,-9.412,61.137,0.3,0.25,0.1,-395.0,16.159,92219.164,787.258,16.150,92219.632,787.259,20798,0.387,787.259,-7081571.500,-2.574,2.83,0.0,0.0,0.0,0.0,4.163,0.233
20834,2,20834,36,0.552,0.35,0.377,41.154,-9.780,61.31,0.4,0.26,0.3,-395.0,0.488,0.122,0.355,41.332,-9.865,61.502,0.5,0.19,0.3,-395.0,16.155,92219.15,787.414,16.150,92221.921,787.561,20834,0.377,787.561,-7095342.0,8.365,1.799,0.0,0.0,0.0,0.0,4.176,0.227
20903,2,20903,69,0.559,0.40,0.394,41.110,-9.754,61.64,0.4,0.27,0.4,-395.0,0.567,0.50,0.449,41.40,-9.543,60.903,0.5,0.23,0.9,-395.0,16.151,92219.390,787.586,16.141,92221.179,787.944,20903,0.394,787.944,-7121983.500,5.553,1.857,0.0,0.0,0.0,0.0,4.163,0.237
20939,2,20939,36,0.546,0.50,0.391,41.119,-9.807,61.23,0.4,0.25,0.4,-395.0,0.480,0.35,0.377,41.289,-10.114,60.917,0.5,0.23,0.2,-395.0,16.143,92219.546,787.470,16.123,92217.828,787.217,20939,0.391,787.217,-7136142.0,-20.200,3.538,0.0,0.0,0.0,0.0,4.163,0.236
20982,2,20982,43,0.549,0.50,0.406,40.967,-9.742,61.189,0.4,0.24,0.4,-395.0,0.588,0.43,0.470,40.836,-9.777,61.487,0.3,0.30,0.5,-395.0,16.136,92219.890,787.461,16.118,92218.890,787.327,20982,0.406,787.327,-7153300.0,2.562,1.928,0.0,0.0,0.0,0.0,4.176,0.244
21018,2,21018,36,0.538,0.53,0.436,41.96,-9.769,61.180,0.5,0.24,0.5,-395.0,0.567,0.14,0.528,40.982,-9.543,61.93,0.4,0.24,0.5,-395.0,16.129,92219.750,787.557,16.114,92218.890,787.738,21018,0.436,787.738,-7168466.0,11.427,1.744,0.0,0.0,0.0,0.0,4.176,0.262
21060,2,21060,42,0.536,0.30,0.436,41.189,-9.804,61.69,0.4,0.24,0.5,-395.0,0.480,0.7,0.355,41.800,-10.40,60.947,0.4,0.21,0.3,-395.0,16.125,92217.546,787.571,16.127,92210.960,787.628,21060,0.436,787.628,-7186793.0,-2.623,2.85,0.0,0.0,0.0,0.0,4.163,0.262
21096,2,21096,36,0.525,0.28,0.421,41.183,-9.871,61.104,0.4,0.26,0.3,-395.0,0.509,0.43,0.377,41.11,-9.880,61.78,0.3,0.31,0.2,-395.0,16.119,92217.85,787.406,16.114,92218.890,787.121,21096,0.421,787.121,-7202243.500,-14.78,2.731,0.0,0.0,0.0,0.0,4.163,0.254
21139,2,21139,43,0.577,0.21,0.423,41.113,-9.786,61.122,0.4,0.27,0.4,-395.0,0.739,0.0,0.384,40.938,-9.690,61.5,0.6,0.28,0.5,-395.0,16.120,92216.640,787.469,16.127,92215.539,787.532,21139,0.423,787.532,-7220420.500,9.565,1.777,0.0,0.0,0.0,0.0,4.163,0.255
21175,2,21175,36,0.561,0.31,0.403,40.999,-9.736,61.46,0.6,0.23,0.4,-395.0,0.509,0.93,0.370,40.266,-9.529,61.107,0.11,0.14,0.2,-395.0,16.120,92217.765,787.406,16.118,92224.531,787.11,21175,0.403,787.11,-7235302.500,-14.485,2.768,0.0,0.0,0.0,0.0,4.150,0.242
21217,2,21217,42,0.532,0.53,0.384,40.926,-9.731,60.970,0.4,0.28,0.4,-395.0,0.423,0.122,0.434,40.616,-9.514,60.713,0.2,0.47,0.9,-395.0,16.121,92216.632,787.346,16.118,92213.250,787.437,21217,0.384,787.437,-7251850.500,10.142,1.766,0.0,0.0,0.0,0.0,4.170,0.231
21253,2,21253,36,0.614,0.44,0.380,40.803,-9.666,61.5,0.4,0.32,0.4,-395.0,0.890,0.35,0.334,41.186,-9.719,61.122,0.4,0.39,0.0,-395.0,16.120,92218.460,787.346,16.123,92220.117,787.628,21253,0.380,787.628,-7265621.0,5.306,1.862,0.0,0.0,0.0,0.0,4.163,0.229
21296,2,21296,43,0.607,0.43,0.387,40.692,-9.628,61.23,0.6,0.26,0.4,-395.0,0.473,0.35,0.413,40.456,-9.690,61.166,0.13,0.0,0.6,-395.0,16.119,92218.734,787.444,16.109,92220.273,787.613,21296,0.387,787.613,-7282131.0,0.353,2.10,0.0,0.0,0.0,0.0,4.170,0.233
21332,2,21332,36,0.505,0.77,0.394,40.567,-9.611,61.28,0.6,0.27,0.5,-395.0,0.229,0.172,0.420,40.309,-9.602,61.34,0.3,0.34,0.9,-395.0,16.116,92218.984,787.422,16.114,92216.765,787.422,21332,0.394,787.422,-7296212.0,-5.291,2.188,0.0,0.0,0.0,0.0,4.163,0.237
21374,2,21374,42,0.545,0.55,0.387,40.660,-9.637,60.900,0.4,0.32,0.5,-395.0,0.710,0.14,0.334,40.733,-9.660,60.464,0.3,0.41,0.1,-395.0,16.114,92218.562,787.523,16.104,92222.406,787.517,21374,0.387,787.517,-7312639.500,2.261,1.936,0.0,0.0,0.0,0.0,4.170,0.233
21421,2,21421,47,0.567,0.38,0.373,40.742,-9.687,61.5,0.6,0.25,0.4,-395.0,0.531,0.35,0.363,41.26,-9.763,61.239,0.7,0.13,0.6,-395.0,16.112,92219.85,787.518,16.109,92215.859,787.408,21421,0.373,787.408,-7330516.500,-2.332,2.75,0.0,0.0,0.0,0.0,4.176,0.224
21465,2,21465,44,0.483,0.48,0.363,40.523,-9.757,61.66,0.5,0.24,0.5,-395.0,0.473,0.14,0.284,40.90,-10.70,61.429,0.1,0.31,0.2,-395.0,16.109,92218.656,787.493,16.109,92217.984,787.504,21465,0.363,787.504,-7346715.500,2.183,1.938,0.0,0.0,0.0,0.0,4.170,0.218
21501,2,21501,36,0.549,0.57,0.373,40.543,-9.780,61.160,0.3,0.31,0.4,-395.0,0.803,0.78,0.463,40.558,-9.807,61.634,0.2,0.36,0.3,-395.0,16.107,92217.984,787.531,16.100,92216.921,787.805,21501,0.373,787.805,-7359969.500,8.365,1.799,0.0,0.0,0.0,0.0,4.176,0.224
21543,2,21543,42,0.610,0.33,0.377,40.707,-9.871,61.248,0.4,0.27,0.4,-395.0,0.531,0.50,0.442,41.128,-10.55,61.473,0.8,0.15,0.6,-395.0,16.105,92217.359,787.569,16.104,92213.570,787.613,21543,0.377,787.613,-7375734.0,-4.573,2.159,0.0,0.0,0.0,0.0,4.163,0.227
21580,2,21580,37,0.532,0.31,0.371,40.798,-9.979,61.438,0.6,0.23,0.5,-395.0,0.323,0.21,0.305,41.186,-10.201,61.414,0.9,0.22,0.8,-395.0,16.102,92216.500,787.567,16.91,92218.148,787.504,21580,0.371,787.504,-7389595.0,-2.947,2.97,0.0,0.0,0.0,0.0,4.163,0.223
21623,2,21623,43,0.536,0.8,0.366,40.684,-10.35,61.514,0.4,0.28,0.4,-395.0,0.552,0.78,0.334,40.456,-10.40,61.619,0.1,0.38,0.0,-395.0,16.100,92216.39,787.646,16.95,92213.570,787.805,21623,0.366,787.805,-7405457.0,7.3,1.826,0.0,0.0,0.0,0.0,4.170,0.220
21660,2,21660,37,0.598,0.4,0.384,40.742,-10.20,61.490,0.5,0.29,0.5,-395.0,0.782,0.7,0.377,40.382,-9.997,61.312,0.4,0.36,0.6,-395.0,16.98,92216.562,787.725,16.100,92220.593,787.900,21660,0.384,787.900,-7419344.500,2.581,1.928,0.0,0.0,0.0,0.0,4.163,0.231
21701,2,21701,41,0.568,0.11,0.403,40.599,-10.119,61.411,0.6,0.25,0.5,-395.0,0.653,0.114,0.556,39.842,-10.304,61.239,0.9,0.12,0.3,-395.0,16.96,92216.382,787.640,16.91,92216.23,787.379,21701,0.403,787.379,-7435498.500,-12.705,2.615,0.0,0.0,0.0,0.0,4.176,0.242
21737,2,21737,36,0.515,0.12,0.403,40.400,-10.172,61.274,0.5,0.27,0.4,-395.0,0.265,0.57,0.442,40.134,-10.318,60.786,0.2,0.25,0.3,-395.0,16.91,92216.445,787.552,16.81,92213.890,787.174,21737,0.403,787.174,-7450018.500,-5.713,2.206,0.0,0.0,0.0,0.0,4.176,0.242
21781,2,21781,44,0.574,0.11,0.406,40.277,-10.64,61.142,0.3,0.27,0.3,-395.0,0.617,0.28,0.320,40.572,-9.660,60.757,0.1,0.24,0.3,-395.0,16.91,92215.593,787.585,16.86,92213.890,787.665,21781,0.406,787.665,-7467828.500,11.173,1.748,0.0,0.0,0.0,0.0,4.176,0.244
21817,2,21817,36,0.511,0.25,0.424,40.353,-10.76,60.979,0.5,0.24,0.4,-395.0,0.236,0.7,0.427,40.836,-10.99,60.800,0.9,0.21,0.4,-395.0,16.85,92216.359,787.595,16.68,92217.406,787.856,21817,0.424,787.856,-7482788.0,5.306,1.862,0.0,0.0,0.0,0.0,4.176,0.255
21859,2,21859,42,0.427,0.73,0.417,40.406,-10.52,60.868,0.5,0.23,0.3,-395.0,0.366,0.229,0.341,40.646,-9.880,60.757,0.4,0.31,0.3,-395.0,16.80,92215.968,787.526,16.77,92218.625,787.555,21859,0.417,787.555,-7500482.0,-7.171,2.274,0.0,0.0,0.0,0.0,4.163,0.251
21895,2,21895,36,0.420,0.66,0.394,40.587,-9.994,60.760,0.4,0.28,0.3,-395.0,0.617,0.78,0.442,40.748,-10.11,60.698,0.3,0.38,0.1,-395.0,16.76,92215.390,787.504,16.68,92213.148,787.269,21895,0.394,787.269,-7515105.500,-7.943,2.312,0.0,0.0,0.0,0.0,4.163,0.237
21964,2,21964,69,0.716,0.752,1.158,40.710,-10.61,60.836,0.4,0.28,0.7,-395.0,-5.419,-4.34,7.325,40.748,-10.654,61.166,0.1,0.27,0.22,-395.0,16.75,92216.859,787.534,16.77,92221.234,787.322,21964,1.158,787.322,-7488748.500,0.762,1.977,0.0,0.0,0.0,0.0,4.176,0.698
22000,2,22000,36,0.725,0.742,1.161,40.777,-10.149,60.850,0.6,0.23,0.7,-395.0,0.574,0.21,0.305,40.909,-10.99,60.830,0.11,0.0,0.5,-395.0,16.67,92215.859,787.528,16.45,92208.890,787.637,22000,1.161,787.637,-7446983.500,8.758,1.791,0.0,0.0,0.0,0.0,4.170,0.699
22043,2,22043,43,0.760,0.732,1.173,40.865,-10.260,60.777,0.5,0.24,0.7,-395.0,0.57,0.43,0.370,41.274,-10.654,60.435,0.6,0.24,0.4,-395.0,16.64,92215.46,787.443,16.54,92213.312,787.431,22043,1.173,787.431,-7396789.0,-4.783,2.167,0.0,0.0,0.0,0.0,4.163,0.706
22079,2,22079,36,0.755,0.772,1.175,40.891,-10.315,60.760,0.3,0.28,0.7,-395.0,0.394,0.28,0.327,40.777,-10.157,60.669,0.3,0.49,0.4,-395.0,16.58,92213.953,787.520,16.49,92213.148,787.938,22079,1.175,787.938,-7354507.500,14.80,1.703,0.0,0.0,0.0,0.0,4.163,0.708
22122,2,22122,43,0.709,0.782,1.213,40.891,-10.374,60.800,0.3,0.27,0.8,-395.0,0.847,0.28,0.255,40.748,-10.304,60.903,0.3,0.35,0.3,-395.0,16.56,92213.953,787.615,16.54,92213.148,787.747,22122,1.213,787.747,-7303140.0,-4.442,2.153,0.0,0.0,0.0,0.0,4.176,0.730
22158,2,22158,36,0.512,0.15,0.318,40.821,-10.283,60.745,0.5,0.26,0.4,-395.0,0.689,0.43,0.334,40.397,-10.201,60.888,0.8,0.21,0.7,-395.0,16.53,92212.539,787.739,16.63,92214.210,787.938,22158,0.318,787.938,-7287037.0,5.306,1.862,0.0,0.0,0.0,0.0,4.163,0.191
22201,2,22201,43,0.489,0.34,0.318,40.651,-10.233,60.684,0.4,0.28,0.5,-395.0,0.459,0.114,0.305,40.61,-9.850,60.523,0.9,0.11,0.6,-395.0,16.55,92213.859,787.739,16.54,92215.437,787.637,22201,0.318,787.637,-7300738.0,-7.4,2.266,0.0,0.0,0.0,0.0,4.163,0.191
22237,2,22237,36,0.541,0.34,0.315,40.587,-10.119,60.809,0.4,0.28,0.4,-395.0,0.315,0.43,0.355,40.952,-10.84,61.64,0.4,0.24,0.0,-395.0,16.57,92215.164,787.802,16.63,92219.851,787.747,22237,0.315,787.747,-7312157.0,3.60,1.915,0.0,0.0,0.0,0.0,4.163,0.190
22279,2,22279,42,0.552,0.28,0.334,40.394,-10.78,60.803,0.5,0.25,0.3,-395.0,0.452,0.0,0.420,39.812,-9.953,60.640,0.2,0.34,0.1,-395.0,16.59,92216.257,787.785,16.63,92218.625,787.856,22279,0.334,787.856,-7325811.0,2.596,1.927,0.0,0.0,0.0,0.0,4.170,0.201
22315,2,22315,36,0.511,0.22,0.360,40.274,-10.58,60.827,0.6,0.24,0.3,-395.0,0.638,0.0,0.384,40.149,-10.201,61.20,0.6,0.29,0.2,-395.0,16.62,92216.15,787.909,16.68,92211.921,788.364,22315,0.360,788.364,-7338315.500,14.95,1.702,0.0,0.0,0.0,0.0,4.170,0.217
22358,2,22358,43,0.489,0.31,0.363,40.213,-10.67,60.868,0.5,0.24,0.3,-395.0,0.581,0.0,0.348,40.90,-10.245,61.93,0.3,0.22,0.5,-395.0,16.62,92215.93,787.873,16.63,92209.640,787.761,22358,0.363,787.761,-7353868.500,-14.22,2.726,0.0,0.0,0.0,0.0,4.163,0.218
22394,2,22394,36,0.505,0.33,0.368,40.187,-10.137,60.993,0.4,0.28,0.2,-395.0,0.538,0.122,0.334,39.929,-10.201,61.151,0.5,0.30,0.0,-395.0,16.64,92215.54,787.835,16.63,92215.273,787.446,22394,0.368,787.446,-7367045.0,-8.743,2.355,0.0,0.0,0.0,0.0,4.176,0.222
22436,2,22436,42,0.557,0.43,0.367,40.90,-10.184,60.976,0.5,0.29,0.2,-395.0,0.574,0.93,0.348,40.470,-10.318,60.976,0.7,0.30,0.3,-395.0,16.65,92214.851,787.816,16.68,92218.789,787.652,22436,0.367,787.652,-7382508.0,4.897,1.871,0.0,0.0,0.0,0.0,4.170,0.221
22499,2,22499,63,0.552,0.54,0.353,40.222,-10.248,61.43,0.5,0.26,0.3,-395.0,0.430,0.57,0.348,40.470,-10.274,60.976,0.6,0.17,0.6,-395.0,16.65,92214.460,787.668,16.63,92216.664,787.116,22499,0.353,787.116,-7405204.500,-8.501,2.342,0.0,0.0,0.0,0.0,4.170,0.212
22540,2,22540,41,0.532,0.58,0.337,40.336,-10.236,61.84,0.5,0.25,0.3,-395.0,0.538,0.21,0.305,40.719,-10.143,61.224,0.5,0.24,0.4,-395.0,16.62,92216.109,787.459,16.54,92220.171,787.322,22540,0.337,787.322,-7419357.500,5.15,1.869,0.0,0.0,0.0,0.0,4.170,0.203
22576,2,22576,36,0.551,0.70,0.325,40.435,-10.143,61.96,0.5,0.26,0.3,-395.0,0.674,0.57,0.291,40.587,-9.777,61.151,0.4,0.27,0.2,-395.0,16.58,92217.757,787.416,16.45,92217.882,787.542,22576,0.325,787.542,-7431293.500,6.105,1.845,0.0,0.0,0.0,0.0,4.163,0.196
22619,2,22619,43,0.555,0.34,0.325,40.590,-10.43,61.131,0.4,0.25,0.3,-395.0,0.559,0.57,0.334,40.704,-9.704,61.327,0.0,0.27,0.2,-395.0,16.57,92217.578,787.393,16.58,92214.375,787.336,22619,0.325,787.336,-7445303.500,-4.783,2.167,0.0,0.0,0.0,0.0,4.170,0.196
22655,2,22655,36,0.564,0.12,0.338,40.561,-9.926,61.154,0.5,0.24,0.5,-395.0,0.617,0.14,0.413,40.324,-9.733,61.93,0.9,0.25,0.10,-395.0,16.55,92217.117,787.248,16.54,92216.500,786.925,22655,0.338,786.925,-7457265.0,-11.425,2.521,0.0,0.0,0.0,0.0,4.176,0.204
22697,2,22697,42,0.565,0.51,0.361,40.578,-9.804,61.227,0.5,0.22,0.4,-395.0,0.437,0.251,0.463,40.558,-9.660,61.341,0.7,0.9,0.2,-395.0,16.53,92218.39,787.330,16.54,92221.234,787.527,22697,0.361,787.527,-7471974.0,14.341,1.699,0.0,0.0,0.0,0.0,4.170,0.217
22734,2,22734,37,0.558,0.55,0.381,40.686,-9.786,61.142,0.4,0.27,0.4,-395.0,0.502,0.43,0.406,41.259,-10.55,60.800,0.0,0.46,0.7,-395.0,16.54,92217.546,787.412,16.58,92217.726,787.733,22734,0.381,787.733,-7485729.0,5.559,1.857,0.0,0.0,0.0,0.0,4.176,0.229
22778,2,22778,44,0.571,0.48,0.350,40.634,-9.915,61.72,0.4,0.25,0.5,-395.0,0.739,0.21,0.133,40.324,-10.420,60.800,0.5,0.21,0.6,-395.0,16.56,92217.85,787.308,16.54,92215.593,787.21,22778,0.350,787.21,-7501833.500,-16.181,2.943,0.0,0.0,0.0,0.0,4.176,0.210
22816,2,22816,38,0.480,0.68,0.353,40.575,-9.967,60.914,0.8,0.23,0.5,-395.0,0.107,0.43,0.348,40.412,-9.967,60.537,0.18,0.13,0.2,-395.0,16.54,92217.296,787.429,16.49,92215.437,787.938,22816,0.353,787.938,-7515196.0,24.149,1.579,0.0,0.0,0.0,0.0,4.170,0.212
22857,2,22857,41,0.432,0.61,0.355,40.646,-9.964,60.923,0.5,0.26,0.4,-395.0,0.373,0.50,0.427,40.675,-9.719,61.137,0.1,0.42,0.4,-395.0,16.56,92217.789,787.549,16.63,92218.945,787.527,22857,0.355,787.527,-7529731.500,-10.33,2.430,0.0,0.0,0.0,0.0,4.176,0.214
22893,2,22893,36,0.522,0.35,0.337,40.616,-9.961,60.850,0.4,0.33,0.6,-395.0,0.890,0.122,0.370,40.412,-9.646,60.976,0.1,0.43,0.12,-395.0,16.54,92217.328,787.609,16.45,92218.945,787.828,22893,0.337,787.828,-7542210.0,8.351,1.799,0.0,0.0,0.0,0.0,4.170,0.203
22936,2,22936,43,0.564,0.70,0.328,40.599,-9.880,60.888,0.6,0.26,0.5,-395.0,0.710,0.215,0.363,41.172,-9.646,60.990,0.7,0.11,0.2,-395.0,16.52,92217.359,787.426,16.49,92217.882,786.815,22936,0.328,786.815,-7556528.500,-23.549,4.407,0.0,0.0,0.0,0.0,4.170,0.197
22998,2,22998,62,0.511,0.67,0.357,40.602,-9.710,60.847,0.6,0.28,0.5,-395.0,0.473,0.7,0.276,40.339,-9.573,60.596,0.4,0.29,0.3,-395.0,16.52,92218.765,787.521,16.54,92222.617,787.498,22998,0.357,787.498,-7577797.0,11.10,1.751,0.0,0.0,0.0,0.0,4.163,0.215
23040,2,23040,42,0.572,0.54,0.350,40.529,-9.675,60.865,0.3,0.29,0.4,-395.0,0.416,0.21,0.312,40.46,-9.792,60.625,0.3,0.19,0.2,-395.0,16.49,92219.523,787.414,16.35,92219.265,787.402,23040,0.350,787.402,-7592657.0,-2.274,2.73,0.0,0.0,0.0,0.0,4.163,0.210
23076,2,23076,36,0.569,0.61,0.328,40.532,-9.678,60.885,0.5,0.25,0.3,-395.0,0.358,0.14,0.320,40.689,-9.733,61.239,0.7,0.20,0.1,-395.0,16.46,92220.929,787.247,16.45,92225.968,786.690,23076,0.328,786.690,-7604877.0,-19.775,3.458,0.0,0.0,0.0,0.0,4.176,0.197
23118,2,23118,42,0.493,0.17,0.312,40.567,-9.663,60.876,0.5,0.24,0.2,-395.0,0.509,0.100,0.291,40.587,-9.573,60.932,0.1,0.41,0.10,-395.0,16.45,92219.140,787.140,16.40,92209.960,787.293,23118,0.312,787.293,-7618350.0,14.353,1.699,0.0,0.0,0.0,0.0,4.170,0.188
23154,2,23154,36,0.485,0.0,0.301,40.458,-9.675,60.812,0.4,0.28,0.2,-395.0,0.667,0.129,0.305,40.631,-9.704,60.669,0.6,0.29,0.1,-395.0,16.44,92218.921,787.260,16.45,92216.820,787.417,23154,0.301,787.417,-7629407.0,3.436,1.906,0.0,0.0,0.0,0.0,4.176,0.181
23197,2,23197,43,0.501,0.28,0.340,40.391,-9.739,60.914,0.5,0.27,0.1,-395.0,0.552,0.150,0.470,40.2,-9.894,61.107,0.7,0.23,0.1,-395.0,16.44,92218.187,787.266,16.54,92218.945,787.527,23197,0.340,787.527,-7643200.500,2.562,1.928,0.0,0.0,0.0,0.0,4.176,0.204
23233,2,23233,36,0.541,0.27,0.341,40.517,-9.736,60.993,0.5,0.28,0.2,-395.0,0.617,0.28,0.320,40.675,-9.777,61.20,0.3,0.25,0.3,-395.0,16.45,92217.210,787.250,16.40,92214.375,787.322,23233,0.341,787.322,-7655472.500,-5.698,2.206,0.0,0.0,0.0,0.0,4.176,0.205
23275,2,23275,42,0.546,0.4,0.353,40.420,-9.815,60.906,0.4,0.27,0.3,-395.0,0.387,0.129,0.377,40.207,-10.128,60.800,0.5,0.19,0.2,-395.0,16.45,92216.726,787.477,16.45,92223.523,787.828,23275,0.353,787.828,-7670061.0,12.42,1.734,0.0,0.0,0.0,0.0,4.163,0.212
23311,2,23311,36,0.532,0.44,0.364,40.327,-9.906,60.853,0.6,0.25,0.2,-395.0,0.437,0.100,0.348,40.119,-10.26,60.669,0.8,0.27,0.4,-395.0,16.47,92218.273,787.603,16.54,92217.726,787.924,23311,0.364,787.924,-7682979.0,2.668,1.925,0.0,0.0,0.0,0.0,4.170,0.219
23354,2,23354,43,0.483,0.27,0.351,40.277,-10.81,60.970,0.6,0.24,0.4,-395.0,0.423,0.43,0.241,40.382,-10.581,61.254,0.8,0.24,0.9,-395.0,16.47,92218.484,787.584,16.45,92217.882,787.322,23354,0.351,787.322,-7698378.0,-13.996,2.723,0.0,0.0,0.0,0.0,4.163,0.211
23390,2,23390,36,0.459,0.0,0.327,40.266,-10.175,60.967,0.5,0.26,0.3,-395.0,0.430,0.14,0.348,39.944,-10.362,61.93,0.0,0.33,0.2,-395.0,16.47,92218.734,787.502,16.54,92220.171,787.116,23390,0.327,787.116,-7710598.0,-5.711,2.206,0.0,0.0,0.0,0.0,4.170,0.197
23433,2,23433,43,0.462,0.4,0.360,40.230,-10.190,61.66,0.5,0.28,0.3,-395.0,0.631,0.7,0.485,40.499,-9.850,61.517,0.2,0.36,0.4,-395.0,16.51,92220.351,787.480,16.58,92222.460,787.211,23433,0.360,787.211,-7725379.500,2.208,1.937,0.0,0.0,0.0,0.0,4.176,0.217
23469,2,23469,36,0.499,0.43,0.366,40.371,-10.152,61.102,0.6,0.27,0.3,-395.0,0.574,0.64,0.406,40.909,-9.938,60.976,0.11,0.15,0.1,-395.0,16.52,92218.304,787.499,16.49,92213.312,787.924,23469,0.366,787.924,-7738452.500,19.792,1.627,0.0,0.0,0.0,0.0,4.170,0.220
23544,2,23544,75,0.152,0.333,-3.784,40.470,-10.114,61.347,0.5,0.26,0.4,-395.0,-2.821,-1.780,-17.440,40.616,-9.836,61.897,0.4,0.22,0.8,-395.0,16.53,92218.187,787.472,16.58,92217.140,787.785,23544,-3.784,787.785,-7894092.500,-1.845,2.58,0.0,0.0,0.0,0.0,4.176,-2.279
23580,2,23580,36,0.142,0.337,-3.827,40.549,-9.994,61.265,0.5,0.27,0.3,-395.0,0.473,0.21,0.456,40.777,-9.982,60.844,0.7,0.25,0.4,-395.0,16.49,92217.585,787.526,16.26,92214.851,787.594,23580,-3.827,787.594,-8031106.0,-5.304,2.189,0.0,0.0,0.0,0.0,4.176,-2.305
23623,2,23623,43,0.132,0.337,-3.830,40.640,-9.941,61.148,0.6,0.24,0.5,-395.0,0.480,0.14,0.363,40.397,-10.99,60.508,0.9,0.23,0.7,-395.0,16.43,92217.656,787.498,16.22,92220.492,786.977,23623,-3.830,786.977,-8195748.500,-14.348,2.755,0.0,0.0,0.0,0.0,4.176,-2.307
23659,2,23659,36,0.186,0.344,-3.810,40.584,-9.976,61.49,0.7,0.24,0.5,-395.0,0.358,0.43,0.384,40.222,-10.26,61.20,0.3,0.32,0.5,-395.0,16.36,92216.796,787.556,16.26,92218.203,787.498,23659,-3.810,787.498,-8333279.0,14.455,1.697,0.0,0.0,0.0,0.0,4.176,-2.295
23701,2,23701,42,0.150,0.363,-3.814,40.482,-9.947,61.31,0.4,0.27,0.4,-395.0,0.753,0.28,0.427,40.397,-9.792,60.888,0.0,0.32,0.0,-395.0,16.33,92217.773,787.449,16.31,92218.203,787.389,23701,-3.814,787.389,-8493399.0,-2.596,2.84,0.0,0.0,0.0,0.0,4.170,-2.297
23737,2,23737,36,0.515,0.5,0.396,40.400,-9.932,60.789,0.5,0.25,0.3,-395.0,0.509,0.64,0.348,40.207,-9.763,60.684,0.10,0.11,0.1,-395.0,16.27,92219.328,787.410,16.31,92224.906,787.594,23737,0.396,787.594,-8569192.0,5.713,1.853,0.0,0.0,0.0,0.0,4.163,0.238
23780,2,23780,43,0.460,0.31,0.388,40.415,-9.865,60.856,0.5,0.27,0.3,-395.0,0.200,0.150,0.420,40.850,-9.646,61.180,0.6,0.38,0.2,-395.0,16.29,92219.765,787.391,16.35,92216.984,787.498,23780,0.388,787.498,-8586072.0,-2.246,2.72,0.0,0.0,0.0,0.0,4.176,0.234
23818,2,23818,38,0.476,0.12,0.401,40.385,-9.769,61.40,0.3,0.31,0.2,-395.0,0.559,0.78,0.427,40.251,-9.617,61.429,0.0,0.40,0.2,-395.0,16.32,92217.890,787.454,16.35,92211.179,787.293,23818,0.401,787.293,-8601099.0,-5.383,2.192,0.0,0.0,0.0,0.0,4.176,0.242
23859,2,23859,41,0.541,0.14,0.396,40.458,-9.728,60.912,0.4,0.28,0.1,-395.0,0.681,0.35,0.355,40.587,-9.821,60.377,0.5,0.17,0.1,-395.0,16.34,92218.109,787.353,16.40,92219.265,786.991,23859,0.396,786.991,-8617459.0,-7.358,2.283,0.0,0.0,0.0,0.0,4.170,0.238
23895,2,23895,36,0.466,0.74,0.393,40.570,-9.701,60.967,0.6,0.25,0.2,-395.0,0.380,0.272,0.413,40.952,-9.660,61.166,0.9,0.18,0.6,-395.0,16.35,92217.656,787.296,16.35,92215.914,787.101,23895,0.393,787.101,-8631669.0,3.44,1.916,0.0,0.0,0.0,0.0,4.170,0.236
23939,2,23939,44,0.469,0.61,0.399,40.491,-9.777,61.26,0.4,0.30,0.3,-395.0,0.524,0.0,0.377,39.812,-10.143,60.976,0.1,0.40,0.7,-395.0,16.36,92214.937,787.216,16.35,92211.343,787.197,23939,0.399,787.197,-8649100.0,2.170,1.938,0.0,0.0,0.0,0.0,4.176,0.240
23975,2,23975,36,0.558,0.28,0.394,40.423,-9.877,60.958,0.4,0.28,0.3,-395.0,0.646,0.14,0.399,40.514,-10.143,60.844,0.4,0.26,0.2,-395.0,16.35,92215.640,787.197,16.31,92220.492,787.402,23975,0.394,787.402,-8663388.0,5.711,1.853,0.0,0.0,0.0,0.0,4.176,0.237
24028,2,24028,53,0.531,0.45,0.388,40.409,-9.918,60.827,0.5,0.24,0.4,-395.0,0.423,0.7,0.399,40.178,-9.821,60.771,0.6,0.19,0.7,-395.0,16.34,92216.828,787.153,16.31,92217.140,787.73,24028,0.388,787.73,-8684156.0,-6.215,2.229,0.0,0.0,0.0,0.0,4.163,0.234
24064,2,24064,36,0.476,0.81,0.394,40.412,-9.921,60.990,0.4,0.27,0.5,-395.0,0.409,0.143,0.384,40.602,-9.836,61.195,0.2,0.30,0.3,-395.0,16.31,92217.140,787.312,16.22,92220.812,787.785,24064,0.394,787.785,-8698263.0,19.792,1.627,0.0,0.0,0.0,0.0,4.176,0.237
24108,2,24108,44,0.516,0.22,0.378,40.306,-9.997,60.958,0.3,0.29,0.4,-395.0,0.581,0.21,0.334,40.426,-10.40,61.5,0.3,0.31,0.2,-395.0,16.30,92216.46,787.366,16.31,92210.437,787.374,24108,0.378,787.374,-8715283.0,-9.348,2.389,0.0,0.0,0.0,0.0,4.176,0.228
24144,2,24144,36,0.521,0.20,0.373,40.549,-10.0,61.23,0.5,0.25,0.4,-395.0,0.545,0.14,0.348,41.26,-10.157,61.297,0.9,0.19,0.4,-395.0,16.27,92218.609,787.380,16.22,92224.164,787.264,24144,0.373,787.264,-8728821.0,-3.60,2.101,0.0,0.0,0.0,0.0,4.170,0.224
24186,2,24186,42,0.482,0.37,0.363,40.552,-9.871,61.2,0.5,0.25,0.5,-395.0,0.452,0.71,0.348,40.529,-9.500,60.742,0.4,0.27,0.7,-395.0,16.26,92217.765,787.314,16.26,92216.234,787.73,24186,0.363,787.73,-8744284.0,-4.548,2.158,0.0,0.0,0.0,0.0,4.176,0.218
24222,2,24222,36,0.489,0.37,0.353,40.473,-9.839,60.990,0.5,0.27,0.4,-395.0,0.459,0.7,0.348,39.783,-9.660,60.713,0.5,0.29,0.5,-395.0,16.23,92217.789,787.311,16.12,92217.296,787.58,24222,0.353,787.58,-8757176.0,0.406,2.12,0.0,0.0,0.0,0.0,4.170,0.212
