millis(),currentState,Calculated flight time,Time since last log,IMUAcc.acceleration.x,IMUAcc.acceleration.y,IMUAcc.acceleration.z,IMUGyro.gyro.x,IMUGyro.gyro.y,IMUGyro.gyro.z,IMUTher.temperature,BARO.readTemperature,BARO.readPressure,BARO.readAltitude,orientation.actual.roll,orientation.actual.pitch,orientation.actual.yaw
700,2,700,700,0.-99,10.0,1.51,0.12,0.27,0.-20,6.93,11.36,90934.21,903.1,0.0,0.0,0.0
752,2,752,52,1.67,9.48,0.70,0.29,0.23,0.-22,7.0,11.38,90934.2,903.73,0.0,0.0,0.0
798,2,798,46,0.-42,10.70,1.21,0.24,0.35,0.-53,7.0,11.39,90933.92,903.34,0.0,0.0,0.0
840,2,840,42,0.17,9.79,0.22,0.26,0.0,0.-14,7.0,11.40,90940.32,903.5,0.0,0.0,0.0
886,2,886,46,0.-18,10.1,0.75,0.14,0.0,0.4,7.6,11.41,90930.41,903.16,0.0,0.0,0.0
932,2,932,46,0.28,10.2,0.89,0.17,0.5,0.0,7.0,11.42,90933.65,903.57,0.0,0.0,0.0
978,2,978,46,0.-12,9.91,0.83,0.-6,0.9,0.-10,7.12,11.43,90934.70,902.78,0.0,0.0,0.0
1025,2,1025,47,0.64,9.73,0.-6,0.-14,0.-9,0.-16,7.6,11.43,90935.65,903.57,0.0,0.0,0.0
1071,2,1071,46,0.-55,10.22,1.62,0.-9,0.-5,0.-17,7.6,11.43,90934.70,903.57,0.0,0.0,0.0
1114,2,1114,43,0.56,9.55,0.-45,0.8,0.-9,0.-6,7.6,11.43,90935.65,903.27,0.0,0.0,0.0
1160,2,1160,46,0.63,9.69,0.-23,0.-55,0.16,0.-27,7.12,11.43,90938.89,903.47,0.0,0.0,0.0
1206,2,1206,46,0.26,10.69,1.57,0.-55,0.-19,0.-13,7.12,11.44,90935.65,902.69,0.0,0.0,0.0
1257,2,1257,51,0.-27,10.46,0.56,0.11,0.-22,0.-1,7.12,11.44,90935.65,903.97,0.0,0.0,0.0
1303,2,1303,46,0.-87,9.56,0.98,0.-22,0.-10,0.23,7.12,11.44,90926.89,903.8,0.0,0.0,0.0
1349,2,1349,46,0.36,10.3,1.74,0.9,0.-9,0.17,7.12,11.43,90943.37,903.48,0.0,0.0,0.0
1392,2,1392,43,0.83,9.96,0.99,0.0,0.4,0.-18,7.12,11.44,90940.3,903.38,0.0,0.0,0.0
1438,2,1438,46,0.26,10.20,1.49,0.1,0.3,0.-27,7.12,11.43,90937.85,903.58,0.0,0.0,0.0
1484,2,1484,46,0.17,10.36,1.51,0.20,0.-19,0.9,7.18,11.45,90936.71,902.90,0.0,0.0,0.0
1530,2,1530,46,0.63,9.71,0.62,0.5,0.-15,0.7,7.18,11.45,90938.80,903.59,0.0,0.0,0.0
1576,2,1576,46,0.45,9.65,0.60,0.-2,0.-20,0.-5,7.18,11.45,90930.4,903.39,0.0,0.0,0.0
1622,2,1622,46,0.28,9.76,1.1,0.3,0.-14,0.-15,7.12,11.44,90943.18,903.49,0.0,0.0,0.0
1665,2,1665,43,0.74,10.1,0.84,0.-1,0.-12,0.-18,7.12,11.45,90935.47,903.9,0.0,0.0,0.0
1711,2,1711,46,0.21,10.7,1.78,0.4,0.-13,0.-29,7.18,11.45,90943.9,903.19,0.0,0.0,0.0
1762,2,1762,51,0.-41,9.80,0.58,0.14,0.-10,0.-15,7.18,11.45,90935.57,902.79,0.0,0.0,0.0
1808,2,1808,46,0.13,10.9,1.35,0.-7,0.-6,0.-2,7.18,11.46,90936.61,903.40,0.0,0.0,0.0
1854,2,1854,46,0.63,9.91,1.24,0.11,0.-10,0.-8,7.12,11.46,90942.4,903.20,0.0,0.0,0.0
1900,2,1900,46,0.-4,10.3,1.4,0.0,0.-2,0.-28,7.12,11.45,90933.37,902.99,0.0,0.0,0.0
1943,2,1943,43,0.-68,9.83,1.24,0.-6,0.-2,0.-22,7.18,11.45,90938.71,903.20,0.0,0.0,0.0
1989,2,1989,46,0.-13,9.82,1.36,0.8,0.-8,0.-25,7.12,11.46,90934.24,903.50,0.0,0.0,0.0
2036,2,2036,47,0.-46,9.89,1.45,0.-27,0.-4,0.-26,7.18,11.47,90935.38,903.0,0.0,0.0,0.0
2082,2,2082,46,0.8,10.84,3.10,0.-12,0.-18,0.-3,7.12,11.46,90939.76,903.21,0.0,0.0,0.0
2128,2,2128,46,0.6,9.26,1.19,0.42,0.-23,0.0,7.12,11.47,90934.24,903.50,0.0,0.0,0.0
2174,2,2174,46,0.-63,9.87,1.16,0.14,0.-8,0.-4,7.18,11.46,90936.52,903.30,0.0,0.0,0.0
2217,2,2217,43,0.11,9.68,1.31,0.2,0.-1,0.-3,7.18,11.46,90939.76,903.30,0.0,0.0,0.0
2268,2,2268,51,0.-65,12.71,5.2,0.-29,0.1,0.-4,7.25,11.46,90934.33,903.39,0.0,0.0,0.0
2314,2,2314,46,0.29,10.21,1.73,0.18,0.-4,0.-11,7.18,11.47,90940.90,902.90,0.0,0.0,0.0
2360,2,2360,46,0.-7,10.93,1.53,0.17,0.0,0.-17,7.12,11.45,90939.76,902.91,0.0,0.0,0.0
2406,2,2406,46,0.-44,9.93,1.28,0.28,0.-6,0.-19,7.25,11.47,90937.57,903.50,0.0,0.0,0.0
2452,2,2452,46,0.-4,9.93,0.97,0.25,0.5,0.-11,7.25,11.46,90929.8,903.48,0.0,0.0,0.0
2512,2,2512,60,0.3,9.41,0.66,0.24,0.-8,0.-11,7.25,11.44,90938.80,903.10,0.0,0.0,0.0
2558,2,2558,46,0.-16,9.34,1.24,0.7,0.-8,0.-23,7.25,11.45,90934.51,903.30,0.0,0.0,0.0
2604,2,2604,46,0.-31,9.87,1.6,0.0,0.-5,0.-22,7.18,11.46,90936.61,902.91,0.0,0.0,0.0
2650,2,2650,46,0.-35,10.56,0.88,0.13,0.1,0.-4,7.18,11.46,90933.28,903.59,0.0,0.0,0.0
2696,2,2696,46,0.22,10.50,0.88,0.27,0.2,0.5,7.25,11.46,90934.33,904.0,0.0,0.0,0.0
2742,2,2742,46,0.-5,9.53,1.13,0.32,0.5,0.-3,7.18,11.46,90937.66,903.10,0.0,0.0,0.0
2802,2,2802,60,0.-18,9.58,0.54,0.15,0.-7,0.-26,7.18,11.44,90936.71,903.29,0.0,0.0,0.0
2848,2,2848,46,0.-34,10.48,1.15,0.8,0.-16,0.-18,7.12,11.44,90939.94,903.10,0.0,0.0,0.0
2894,2,2894,46,0.-64,10.15,0.55,0.28,0.-18,0.7,7.18,11.45,90935.47,903.10,0.0,0.0,0.0
2940,2,2940,46,0.-15,9.55,0.-16,0.0,0.-2,0.28,7.18,11.45,90938.71,903.10,0.0,0.0,0.0
2986,2,2986,46,0.82,10.2,1.11,0.-8,0.0,0.3,7.18,11.45,90936.52,903.40,0.0,0.0,0.0
3032,2,3032,46,0.43,9.96,0.34,0.1,0.-2,0.-27,7.18,11.46,90931.9,903.89,0.0,0.0,0.0
3076,2,3076,44,0.-23,10.30,0.74,0.-9,0.-5,0.-27,7.18,11.45,90932.14,902.91,0.0,0.0,0.0
3122,2,3122,46,0.-7,10.45,1.3,0.8,0.-6,0.-12,7.18,11.47,90933.28,903.60,0.0,0.0,0.0
3168,2,3168,46,0.-5,10.26,0.46,0.5,0.-8,0.-8,7.25,11.46,90933.18,903.50,0.0,0.0,0.0
3214,2,3214,46,0.14,10.9,0.72,0.9,0.-8,0.-5,7.25,11.47,90937.57,903.40,0.0,0.0,0.0
3260,2,3260,46,0.4,10.2,0.63,0.13,0.-12,0.-9,7.25,11.46,90933.18,903.50,0.0,0.0,0.0
3312,2,3312,52,0.-17,9.78,0.80,0.11,0.-12,0.-12,7.12,11.47,90937.75,903.10,0.0,0.0,0.0
3355,2,3355,43,0.-24,9.63,0.64,0.0,0.-9,0.-10,7.25,11.46,90937.66,902.90,0.0,0.0,0.0
3401,2,3401,46,0.-30,9.86,0.51,0.-3,0.-9,0.-9,7.25,11.46,90929.95,903.30,0.0,0.0,0.0
3447,2,3447,46,0.9,10.17,0.89,0.-1,0.0,0.-7,7.25,11.46,90935.38,903.30,0.0,0.0,0.0
3493,2,3493,46,0.12,9.83,0.64,0.3,0.-7,0.-9,7.18,11.46,90934.33,903.80,0.0,0.0,0.0
3539,2,3539,46,0.3,9.94,0.89,0.-2,0.-8,0.-10,7.25,11.47,90932.4,904.10,0.0,0.0,0.0
3585,2,3585,46,0.5,10.10,0.69,0.1,0.0,0.-15,7.25,11.46,90938.61,903.30,0.0,0.0,0.0
3628,2,3628,43,0.-20,10.30,0.89,0.-3,0.-7,0.-19,7.31,11.47,90933.18,903.21,0.0,0.0,0.0
3674,2,3674,46,0.-60,9.99,0.88,0.4,0.-3,0.-5,7.25,11.46,90935.47,904.10,0.0,0.0,0.0
3720,2,3720,46,0.-29,9.83,0.82,0.2,0.-4,0.2,7.25,11.47,90934.24,903.61,0.0,0.0,0.0
3766,2,3766,46,0.-34,10.6,0.61,0.-6,0.-8,0.5,7.25,11.47,90931.0,903.50,0.0,0.0,0.0
3817,2,3817,51,0.1,10.33,1.32,0.-3,0.-3,0.5,7.25,11.47,90932.14,902.91,0.0,0.0,0.0
3863,2,3863,46,0.22,10.5,0.58,0.4,0.-14,0.-2,7.25,11.46,90941.95,903.60,0.0,0.0,0.0
3906,2,3906,43,0.15,9.65,0.66,0.2,0.-11,0.-10,7.25,11.46,90934.24,902.72,0.0,0.0,0.0
3952,2,3952,46,0.2,9.79,0.75,0.3,0.-5,0.-23,7.31,11.47,90939.76,902.91,0.0,0.0,0.0
3998,2,3998,46,0.-13,10.9,0.84,0.0,0.-7,0.-17,7.25,11.47,90935.28,903.30,0.0,0.0,0.0
4044,2,4044,46,0.-2,10.14,1.1,0.4,0.-7,0.-4,7.25,11.46,90933.9,903.11,0.0,0.0,0.0
4091,2,4091,47,0.30,10.9,0.81,0.13,0.-14,0.4,7.31,11.47,90930.90,903.41,0.0,0.0,0.0
4137,2,4137,46,0.33,9.96,0.90,0.2,0.-12,0.-4,7.31,11.47,90931.0,903.61,0.0,0.0,0.0
4180,2,4180,43,0.-6,10.22,1.23,0.2,0.-11,0.-14,7.37,11.46,90936.52,903.69,0.0,0.0,0.0
4226,2,4226,46,0.-20,9.91,0.86,0.3,0.-10,0.-13,7.31,11.47,90929.85,903.11,0.0,0.0,0.0
4272,2,4272,46,0.-16,9.91,0.86,0.-9,0.-5,0.-9,7.31,11.47,90935.28,902.71,0.0,0.0,0.0
4323,2,4323,51,0.-4,9.96,1.33,0.3,0.-6,0.-15,7.37,11.46,90939.67,903.41,0.0,0.0,0.0
4369,2,4369,46,0.40,9.38,0.77,0.1,0.-1,0.-17,7.31,11.47,90933.9,903.42,0.0,0.0,0.0
4415,2,4415,46,0.10,10.17,1.62,0.-3,0.-1,0.-19,7.37,11.47,90936.52,903.50,0.0,0.0,0.0
4458,2,4458,43,0.-5,10.3,1.11,0.12,0.-9,0.-10,7.31,11.47,90936.42,903.41,0.0,0.0,0.0
4504,2,4504,46,0.7,9.86,0.66,0.-2,0.-13,0.0,7.31,11.47,90940.71,903.51,0.0,0.0,0.0
4550,2,4550,46,0.-1,10.26,1.36,0.7,0.-12,0.-5,7.31,11.47,90928.80,903.81,0.0,0.0,0.0
4596,2,4596,46,0.-15,9.83,0.81,0.9,0.-12,0.-5,7.31,11.48,90933.9,903.2,0.0,0.0,0.0
4642,2,4642,46,0.-15,10.0,1.6,0.0,0.-6,0.-9,7.31,11.48,90931.95,903.32,0.0,0.0,0.0
4688,2,4688,46,0.-22,9.75,0.95,0.3,0.-11,0.-10,7.31,11.48,90936.33,903.22,0.0,0.0,0.0
4731,2,4731,43,0.9,9.65,1.13,0.-1,0.-4,0.-12,7.37,11.49,90934.14,903.62,0.0,0.0,0.0
4777,2,4777,46,0.20,10.16,1.43,0.-7,0.0,0.-21,7.37,11.48,90935.19,903.2,0.0,0.0,0.0
4829,2,4829,52,0.-61,10.70,1.11,0.24,0.0,0.-19,7.31,11.48,90942.90,903.22,0.0,0.0,0.0
4875,2,4875,46,0.12,9.91,0.90,0.5,0.-5,0.5,7.37,11.49,90930.81,903.12,0.0,0.0,0.0
4921,2,4921,46,0.33,9.39,0.34,0.3,0.-14,0.-8,7.37,11.48,90936.33,903.32,0.0,0.0,0.0
4967,2,4967,46,0.-56,10.0,1.30,0.5,0.-7,0.-24,7.31,11.48,90936.33,903.31,0.0,0.0,0.0
5015,2,5015,48,0.47,9.68,0.23,0.3,0.-2,0.-13,7.31,11.48,90936.33,903.51,0.0,0.0,0.0
5061,2,5061,46,0.-33,10.10,1.9,0.3,0.-10,0.-17,7.37,11.48,90934.14,903.12,0.0,0.0,0.0
5108,2,5108,47,0.-47,10.15,1.11,0.6,0.-19,0.6,7.37,11.48,90935.19,903.42,0.0,0.0,0.0
5154,2,5154,46,0.-4,9.74,0.83,0.5,0.-39,0.16,7.37,11.49,90933.9,903.72,0.0,0.0,0.0
5200,2,5200,46,0.-3,9.49,0.76,0.-6,0.-30,0.16,7.31,11.48,90931.85,903.82,0.0,0.0,0.0
5246,2,5246,46,0.-40,9.58,0.87,0.-10,0.4,0.-5,7.37,11.49,90937.38,903.43,0.0,0.0,0.0
5289,2,5289,43,0.24,10.86,2.47,0.1,0.13,0.-18,7.31,11.49,90938.43,902.72,0.0,0.0,0.0
5349,2,5349,60,0.90,8.79,0.55,0.-12,0.0,0.-17,7.31,11.47,90939.67,903.31,0.0,0.0,0.0
5395,2,5395,46,0.-89,9.68,1.81,0.18,0.-17,0.-23,7.31,11.48,90927.57,903.72,0.0,0.0,0.0
5441,2,5441,46,0.-34,10.18,0.62,0.-2,0.-31,0.26,7.31,11.48,90937.38,903.23,0.0,0.0,0.0
5487,2,5487,46,0.41,10.39,1.85,0.0,0.-10,0.-4,7.37,11.49,90933.0,902.92,0.0,0.0,0.0
5533,2,5533,46,0.9,9.85,0.16,0.28,0.5,0.-43,7.31,11.49,90933.0,902.92,0.0,0.0,0.0
5576,2,5576,43,0.-22,10.12,1.44,0.-8,0.9,0.-32,7.31,11.49,90936.24,903.43,0.0,0.0,0.0
5622,2,5622,46,0.-10,10.48,1.72,0.21,0.-13,0.-6,7.31,11.49,90936.24,903.4,0.0,0.0,0.0
5668,2,5668,46,0.38,10.23,1.0,0.2,0.-19,0.14,7.31,11.49,90937.28,903.53,0.0,0.0,0.0
5714,2,5714,46,0.35,10.10,1.13,0.12,0.-2,0.13,7.31,11.49,90934.5,902.93,0.0,0.0,0.0
5760,2,5760,46,0.70,9.84,0.59,0.27,0.-13,0.3,7.37,11.49,90937.28,903.82,0.0,0.0,0.0
5806,2,5806,46,0.38,10.4,0.78,0.2,0.-11,0.-23,7.37,11.49,90935.19,903.52,0.0,0.0,0.0
5855,2,5855,49,0.4,10.31,1.1,0.5,0.-7,0.-37,7.31,11.48,90942.81,903.32,0.0,0.0,0.0
5901,2,5901,46,0.-45,10.70,0.24,0.-2,0.-5,0.-32,7.37,11.49,90931.95,903.23,0.0,0.0,0.0
5947,2,5947,46,0.3,10.1,1.62,0.42,0.11,0.0,7.37,11.49,90933.0,903.3,0.0,0.0,0.0
5993,2,5993,46,0.66,9.11,1.31,0.18,0.-6,0.15,7.31,11.49,90933.0,903.23,0.0,0.0,0.0
6039,2,6039,46,0.66,8.72,1.95,0.8,0.-19,0.0,7.37,11.49,90937.38,902.73,0.0,0.0,0.0
6085,2,6085,46,0.-14,9.5,0.-14,0.-3,0.-12,0.-41,7.31,11.49,90936.24,903.23,0.0,0.0,0.0
6129,2,6129,44,0.-23,10.93,1.68,0.-31,0.-4,0.-51,7.31,11.49,90938.43,903.13,0.0,0.0,0.0
6175,2,6175,46,0.-61,9.87,0.56,0.7,0.0,0.-32,7.37,11.50,90932.90,903.53,0.0,0.0,0.0
6221,2,6221,46,-1.-15,11.23,0.14,0.-51,0.-2,0.6,7.37,11.50,90933.96,903.93,0.0,0.0,0.0
6267,2,6267,46,0.48,11.85,2.90,0.0,0.23,0.3,7.31,11.50,90937.28,902.84,0.0,0.0,0.0
6313,2,6313,46,0.62,9.95,0.65,0.42,0.19,0.-25,7.37,11.50,90937.19,903.74,0.0,0.0,0.0
6364,2,6364,51,0.-72,9.47,1.15,0.20,0.10,0.-37,7.31,11.49,90938.43,903.63,0.0,0.0,0.0
6407,2,6407,43,0.-85,8.90,0.11,0.29,0.9,0.-22,7.31,11.49,90935.10,903.13,0.0,0.0,0.0
6453,2,6453,46,0.-51,9.47,0.90,0.7,0.-5,0.10,7.37,11.49,90940.53,903.63,0.0,0.0,0.0
6499,2,6499,46,0.-2,9.56,1.3,0.19,0.-15,0.20,7.37,11.50,90928.43,903.63,0.0,0.0,0.0
6545,2,6545,46,0.-7,9.32,0.78,0.-13,0.-1,0.17,7.31,11.50,90936.14,903.73,0.0,0.0,0.0
6591,2,6591,46,0.-61,9.68,1.0,0.-1,0.-9,0.9,7.43,11.49,90931.76,903.23,0.0,0.0,0.0
6637,2,6637,46,0.-31,9.90,1.7,0.-6,0.-9,0.7,7.37,11.49,90938.43,902.93,0.0,0.0,0.0
6680,2,6680,43,0.-16,10.6,1.4,0.-14,0.-14,0.4,7.37,11.49,90936.14,903.14,0.0,0.0,0.0
6726,2,6726,46,0.9,10.70,1.20,0.-15,0.-21,0.3,7.37,11.50,90935.0,903.73,0.0,0.0,0.0
6772,2,6772,46,0.28,10.43,0.62,0.-10,0.-14,0.-11,7.37,11.50,90938.34,903.63,0.0,0.0,0.0
6818,2,6818,46,0.39,10.70,1.32,0.6,0.-21,0.-22,7.31,11.49,90936.14,902.84,0.0,0.0,0.0
6869,2,6869,51,0.6,10.6,0.83,0.17,0.-20,0.-20,7.31,11.49,90938.43,903.23,0.0,0.0,0.0
6915,2,6915,46,0.14,9.50,0.36,0.-1,0.-22,0.-6,7.43,11.49,90941.67,903.3,0.0,0.0,0.0
6958,2,6958,43,0.-38,9.75,0.93,0.2,0.-37,0.-19,7.31,11.50,90935.10,903.53,0.0,0.0,0.0
7004,2,7004,46,0.-19,10.5,1.43,0.-6,0.-8,0.-51,7.37,11.50,90933.96,903.23,0.0,0.0,0.0
7050,2,7050,46,0.-20,10.13,1.53,0.-13,0.10,0.-67,7.37,11.49,90930.62,903.63,0.0,0.0,0.0
7096,2,7096,46,-1.-10,10.27,1.41,0.3,0.-19,0.-46,7.31,11.50,90936.14,903.43,0.0,0.0,0.0
7143,2,7143,47,0.-68,9.89,1.22,0.24,0.-21,0.-5,7.37,11.49,90935.0,903.4,0.0,0.0,0.0
7192,2,7192,49,0.-37,9.57,0.71,0.21,0.-16,0.9,7.37,11.50,90939.39,903.14,0.0,0.0,0.0
7238,2,7238,46,0.11,9.61,0.98,0.8,0.-11,0.14,7.43,11.49,90931.76,903.13,0.0,0.0,0.0
7284,2,7284,46,0.11,9.81,1.22,0.17,0.-18,0.7,7.37,11.49,90938.34,903.54,0.0,0.0,0.0
7330,2,7330,46,0.-20,10.26,0.80,0.8,0.-14,0.-1,7.37,11.50,90938.25,903.33,0.0,0.0,0.0
7404,2,7404,74,0.-42,10.33,1.21,0.18,0.-26,0.0,7.37,11.48,90939.67,903.41,0.0,0.0,0.0
7450,2,7450,46,0.-36,10.9,0.72,0.11,0.-14,0.-7,7.37,11.49,90937.28,903.12,0.0,0.0,0.0
7499,2,7499,49,0.-39,10.37,1.8,0.6,0.-10,0.-13,7.37,11.48,90936.24,904.12,0.0,0.0,0.0
7545,2,7545,46,0.-26,10.26,1.28,0.20,0.0,0.-17,7.37,11.49,90938.43,904.13,0.0,0.0,0.0
7591,2,7591,46,0.-34,9.72,0.40,0.10,0.4,0.-19,7.43,11.49,90935.0,903.53,0.0,0.0,0.0
7637,2,7637,46,0.-9,9.62,1.43,0.-18,0.2,0.-13,7.43,11.49,90937.19,904.33,0.0,0.0,0.0
7683,2,7683,46,0.-47,9.73,1.11,0.1,0.-4,0.-17,7.43,11.50,90936.5,903.53,0.0,0.0,0.0
7729,2,7729,46,0.-54,9.95,0.89,0.-5,0.-2,0.-12,7.37,11.50,90936.5,903.64,0.0,0.0,0.0
7778,2,7778,49,0.-29,9.89,0.89,0.3,0.-13,0.1,7.37,11.49,90935.0,903.63,0.0,0.0,0.0
7824,2,7824,46,0.-5,9.73,0.52,0.2,0.-18,0.3,7.50,11.51,90931.76,903.84,0.0,0.0,0.0
7870,2,7870,46,0.5,9.93,1.12,0.0,0.-19,0.-5,7.43,11.50,90930.62,903.83,0.0,0.0,0.0
7922,2,7922,52,0.-16,10.0,0.96,0.4,0.-20,0.-11,7.43,11.49,90938.25,903.14,0.0,0.0,0.0
7968,2,7968,46,0.-29,10.2,1.22,0.0,0.-23,0.-2,7.43,11.50,90937.19,903.74,0.0,0.0,0.0
8014,2,8014,46,0.-17,10.9,1.17,0.7,0.-24,0.0,7.43,11.50,90927.28,903.43,0.0,0.0,0.0
8063,2,8063,49,0.-7,10.0,1.41,0.-1,0.-16,0.-4,7.50,11.50,90938.25,903.54,0.0,0.0,0.0
8109,2,8109,46,0.-51,9.92,1.13,0.4,0.-16,0.-13,7.43,11.49,90935.0,902.85,0.0,0.0,0.0
8156,2,8156,47,0.-46,10.2,1.25,0.-2,0.-9,0.-13,7.43,11.50,90935.0,903.74,0.0,0.0,0.0
8202,2,8202,46,0.-42,10.13,1.30,0.-1,0.-5,0.-17,7.43,11.51,90939.29,903.83,0.0,0.0,0.0
8248,2,8248,46,0.-30,10.21,1.20,0.2,0.10,0.-13,7.43,11.51,90930.53,903.44,0.0,0.0,0.0
8294,2,8294,46,0.1,10.6,1.16,0.10,0.2,0.-1,7.43,11.50,90937.10,903.55,0.0,0.0,0.0
8343,2,8343,49,0.22,9.78,0.79,0.14,0.-3,0.9,7.43,11.51,90936.5,903.84,0.0,0.0,0.0
8389,2,8389,46,0.18,9.78,0.81,0.10,0.-9,0.7,7.43,11.51,90934.91,903.83,0.0,0.0,0.0
8440,2,8440,51,0.23,9.99,1.12,0.7,0.-9,0.-2,7.43,11.50,90939.39,903.44,0.0,0.0,0.0
8486,2,8486,46,0.1,9.92,1.5,0.7,0.-9,0.-10,7.43,11.50,90933.77,903.24,0.0,0.0,0.0
8532,2,8532,46,0.-11,9.83,1.7,0.1,0.-12,0.-7,7.50,11.50,90934.91,903.54,0.0,0.0,0.0
8578,2,8578,46,0.-58,9.76,0.86,0.-4,0.-9,0.-3,7.37,11.50,90934.91,902.85,0.0,0.0,0.0
8627,2,8627,49,0.-28,10.17,1.28,0.-5,0.32,0.-4,7.43,11.51,90940.34,902.85,0.0,0.0,0.0
8673,2,8673,46,0.10,9.98,1.19,0.0,0.19,0.-3,7.43,11.51,90930.53,902.95,0.0,0.0,0.0
8719,2,8719,46,0.49,9.75,0.90,0.4,0.-3,0.-1,7.43,11.51,90935.96,902.95,0.0,0.0,0.0
8765,2,8765,46,0.55,9.97,0.90,0.1,0.-10,0.-11,7.43,11.51,90935.96,903.64,0.0,0.0,0.0
8811,2,8811,46,0.35,10.40,1.52,0.-1,0.-11,0.-26,7.43,11.52,90932.72,903.75,0.0,0.0,0.0
8857,2,8857,46,0.-18,10.9,1.30,0.6,0.-17,0.-25,7.50,11.51,90933.77,903.74,0.0,0.0,0.0
8906,2,8906,49,0.-37,10.1,1.20,0.9,0.-17,0.-10,7.50,11.51,90939.29,903.15,0.0,0.0,0.0
8957,2,8957,51,0.-18,9.68,1.23,0.8,0.-17,0.-3,7.50,11.51,90933.86,903.24,0.0,0.0,0.0
9003,2,9003,46,0.-23,9.74,1.16,0.5,0.-11,0.-8,7.50,11.50,90935.96,902.95,0.0,0.0,0.0
9049,2,9049,46,0.-24,9.94,1.36,0.-4,0.-2,0.-6,7.43,11.51,90934.91,903.5,0.0,0.0,0.0
9095,2,9095,46,0.-11,9.94,1.27,0.5,0.-1,0.0,7.43,11.51,90933.86,903.16,0.0,0.0,0.0
9141,2,9141,46,0.24,9.85,0.98,0.1,0.-5,0.0,7.37,11.52,90933.77,903.65,0.0,0.0,0.0
9191,2,9191,50,0.30,9.99,1.5,0.-1,0.-9,0.-13,7.50,11.52,90937.10,903.54,0.0,0.0,0.0
9237,2,9237,46,0.-14,10.8,1.16,0.2,0.-10,0.-16,7.50,11.52,90932.72,903.44,0.0,0.0,0.0
9283,2,9283,46,0.-14,10.4,1.20,0.2,0.-12,0.-12,7.43,11.51,90931.57,903.94,0.0,0.0,0.0
9329,2,9329,46,0.4,9.86,1.18,0.3,0.-12,0.-10,7.50,11.52,90940.34,903.16,0.0,0.0,0.0
9375,2,9375,46,0.11,9.98,1.34,0.1,0.-14,0.-12,7.50,11.52,90932.72,903.45,0.0,0.0,0.0
9421,2,9421,46,0.-11,9.95,1.34,0.2,0.-15,0.-14,7.50,11.51,90939.10,903.45,0.0,0.0,0.0
9484,2,9484,63,0.-8,9.92,1.35,0.0,0.-13,0.-8,7.56,11.49,90935.0,902.65,0.0,0.0,0.0
9530,2,9530,46,0.-1,9.91,1.37,0.0,0.-13,0.-10,7.50,11.50,90933.86,903.35,0.0,0.0,0.0
9576,2,9576,46,0.-8,9.97,1.37,0.0,0.-10,0.-11,7.50,11.51,90943.67,903.5,0.0,0.0,0.0
9622,2,9622,46,0.-10,9.98,1.22,0.0,0.-10,0.-7,7.50,11.52,90934.82,902.86,0.0,0.0,0.0
9668,2,9668,46,0.7,10.3,1.56,0.0,0.-10,0.-8,7.50,11.52,90931.48,902.85,0.0,0.0,0.0
9714,2,9714,46,0.4,9.95,1.31,0.4,0.-10,0.-14,7.50,11.52,90933.67,903.26,0.0,0.0,0.0
9775,2,9775,61,0.-17,9.86,1.36,0.4,0.-13,0.-13,7.50,11.51,90937.0,902.75,0.0,0.0,0.0
9821,2,9821,46,0.-23,9.90,1.45,0.4,0.-10,0.-10,7.50,11.51,90931.57,903.16,0.0,0.0,0.0
9867,2,9867,46,0.-4,9.90,1.33,0.2,0.-9,0.-9,7.50,11.51,90939.20,903.16,0.0,0.0,0.0
9913,2,9913,46,0.4,10.1,1.54,0.1,0.-11,0.-11,7.56,11.53,90938.6,903.55,0.0,0.0,0.0
9959,2,9959,46,0.-18,10.9,1.59,0.8,0.-10,0.-11,7.56,11.53,90933.77,903.25,0.0,0.0,0.0
10012,2,10012,53,0.-13,9.92,1.35,0.4,0.-10,0.-10,7.56,11.52,90937.10,903.65,0.0,0.0,0.0
10061,2,10061,49,0.-16,9.85,1.45,0.8,0.-7,0.-13,7.56,11.52,90935.96,903.35,0.0,0.0,0.0
10107,2,10107,46,0.-14,9.98,1.31,0.3,0.-7,0.-11,7.50,11.53,90943.49,903.46,0.0,0.0,0.0
10153,2,10153,46,0.-14,10.0,1.41,0.3,0.-10,0.-8,7.50,11.53,90935.96,903.27,0.0,0.0,0.0
10200,2,10200,47,0.-14,9.92,1.35,0.4,0.-11,0.-6,7.50,11.53,90933.67,903.46,0.0,0.0,0.0
10246,2,10246,46,0.-5,10.1,1.42,0.4,0.-9,0.-10,7.50,11.52,90939.20,902.47,0.0,0.0,0.0
10292,2,10292,46,0.-11,9.94,1.42,0.3,0.-10,0.-12,7.43,11.53,90936.91,903.67,0.0,0.0,0.0
10335,2,10335,43,0.-19,9.87,1.43,0.2,0.-10,0.-10,7.50,11.53,90939.10,903.6,0.0,0.0,0.0
10381,2,10381,46,0.-21,9.91,1.44,0.2,0.-12,0.-8,7.50,11.52,90938.6,903.17,0.0,0.0,0.0
10427,2,10427,46,0.-19,9.90,1.42,0.3,0.-10,0.-8,7.50,11.53,90935.77,903.47,0.0,0.0,0.0
10473,2,10473,46,0.-13,10.3,1.42,0.4,0.-8,0.-7,7.50,11.53,90930.34,903.36,0.0,0.0,0.0
10524,2,10524,51,0.0,10.7,1.48,0.3,0.-10,0.-6,7.50,11.52,90932.63,903.56,0.0,0.0,0.0
10570,2,10570,46,0.0,9.98,1.46,0.5,0.-10,0.-11,7.56,11.53,90941.39,903.5,0.0,0.0,0.0
10613,2,10613,43,0.-17,9.91,1.34,0.3,0.-10,0.-13,7.50,11.53,90933.67,903.26,0.0,0.0,0.0
10659,2,10659,46,0.-9,9.91,1.48,0.2,0.-12,0.-10,7.50,11.52,90933.67,903.16,0.0,0.0,0.0
10705,2,10705,46,0.-22,9.89,1.50,0.3,0.-12,0.-10,7.50,11.53,90936.91,903.36,0.0,0.0,0.0
10751,2,10751,46,0.-22,9.89,1.33,0.5,0.-11,0.-7,7.50,11.52,90934.72,902.77,0.0,0.0,0.0
10797,2,10797,46,0.-11,9.95,1.45,0.3,0.-11,0.-8,7.50,11.53,90942.35,903.36,0.0,0.0,0.0
10843,2,10843,46,0.-3,9.98,1.41,0.2,0.-11,0.-10,7.50,11.53,90935.86,903.36,0.0,0.0,0.0
10886,2,10886,43,0.-15,10.1,1.52,0.3,0.-11,0.-11,7.50,11.53,90932.63,903.26,0.0,0.0,0.0
10932,2,10932,46,0.-13,9.94,1.42,0.6,0.-10,0.-11,7.50,11.54,90941.29,903.96,0.0,0.0,0.0
10978,2,10978,46,0.-13,9.88,1.38,0.2,0.-11,0.-10,7.50,11.53,90940.15,903.17,0.0,0.0,0.0
11029,2,11029,51,0.-20,9.92,1.49,0.4,0.-11,0.-13,7.50,11.52,90937.0,902.86,0.0,0.0,0.0
11075,2,11075,46,0.-25,9.93,1.40,0.4,0.-11,0.-13,7.50,11.54,90934.72,903.46,0.0,0.0,0.0
11121,2,11121,46,0.-33,10.1,1.49,0.5,0.-10,0.-9,7.50,11.53,90942.44,902.97,0.0,0.0,0.0
11164,2,11164,43,0.-17,10.2,1.49,0.6,0.-8,0.-7,7.50,11.52,90943.49,903.27,0.0,0.0,0.0
11211,2,11211,47,0.-19,9.97,1.50,0.8,0.-5,0.-10,7.56,11.53,90932.53,903.66,0.0,0.0,0.0
11257,2,11257,46,0.-24,9.83,1.47,0.7,0.-7,0.-10,7.56,11.54,90933.58,902.77,0.0,0.0,0.0
11303,2,11303,46,0.-26,9.84,1.46,0.7,0.-7,0.-9,7.56,11.53,90939.1,902.97,0.0,0.0,0.0
11349,2,11349,46,0.-25,9.88,1.33,0.3,0.-8,0.-8,7.50,11.53,90935.86,903.27,0.0,0.0,0.0
11398,2,11398,49,0.-15,9.99,1.46,0.5,0.-9,0.-7,7.56,11.54,90933.58,903.56,0.0,0.0,0.0
11444,2,11444,46,0.-5,9.88,1.42,0.5,0.-9,0.-9,7.50,11.53,90933.67,903.47,0.0,0.0,0.0
11490,2,11490,46,0.-13,10.4,1.38,0.4,0.-11,0.-13,7.56,11.54,90930.25,903.8,0.0,0.0,0.0
11541,2,11541,51,0.-29,9.97,1.61,0.6,0.-11,0.-11,7.50,11.53,90937.96,903.76,0.0,0.0,0.0
11587,2,11587,46,0.-22,9.84,1.39,0.11,0.-10,0.-10,7.50,11.53,90933.58,903.36,0.0,0.0,0.0
11633,2,11633,46,0.-22,9.69,1.19,0.6,0.-9,0.-9,7.56,11.53,90939.1,903.17,0.0,0.0,0.0
11682,2,11682,49,0.-34,9.85,1.29,0.4,0.-8,0.-8,7.50,11.53,90937.96,903.76,0.0,0.0,0.0
11728,2,11728,46,0.-19,10.2,1.31,0.1,0.-8,0.-2,7.50,11.53,90933.58,903.17,0.0,0.0,0.0
11774,2,11774,46,0.-11,10.9,1.23,0.5,0.-7,0.-6,7.56,11.54,90935.77,903.77,0.0,0.0,0.0
11820,2,11820,46,0.-11,10.8,1.36,0.4,0.-8,0.-9,7.50,11.54,90937.96,903.47,0.0,0.0,0.0
11866,2,11866,46,0.-25,10.0,1.45,0.9,0.-8,0.-8,7.56,11.54,90936.82,903.8,0.0,0.0,0.0
11912,2,11912,46,0.0,9.80,1.26,0.6,0.-8,0.-7,7.50,11.55,90940.15,903.28,0.0,0.0,0.0
11955,2,11955,43,0.-11,9.90,1.25,0.5,0.-8,0.-10,7.50,11.55,90932.44,903.67,0.0,0.0,0.0
12001,2,12001,46,0.-21,9.96,1.45,0.4,0.-9,0.-6,7.56,11.55,90935.67,903.68,0.0,0.0,0.0
12062,2,12062,61,0.-2,9.93,1.29,0.8,0.-9,0.-5,7.50,11.53,90940.15,903.27,0.0,0.0,0.0
12108,2,12108,46,0.0,9.89,1.21,0.5,0.-9,0.-8,7.50,11.52,90934.72,903.56,0.0,0.0,0.0
12154,2,12154,46,0.-18,9.94,1.32,0.4,0.-9,0.-10,7.43,11.54,90938.6,903.27,0.0,0.0,0.0
12200,2,12200,46,0.-13,9.99,1.30,0.5,0.-9,0.-8,7.50,11.54,90938.92,903.28,0.0,0.0,0.0
12244,2,12244,44,0.-5,9.91,1.34,0.5,0.-9,0.-9,7.56,11.54,90929.20,902.78,0.0,0.0,0.0
12290,2,12290,46,0.-16,9.99,1.22,0.3,0.-10,0.-8,7.50,11.55,90930.25,903.17,0.0,0.0,0.0
12336,2,12336,46,0.-7,10.8,1.50,0.1,0.-12,0.-7,7.56,11.54,90933.58,903.28,0.0,0.0,0.0
12382,2,12382,46,0.-18,10.2,1.36,0.7,0.-8,0.-11,7.56,11.55,90935.67,903.48,0.0,0.0,0.0
12428,2,12428,46,0.-12,9.84,1.18,0.2,0.-8,0.-8,7.56,11.54,90935.67,903.18,0.0,0.0,0.0
12474,2,12474,46,0.-3,9.92,1.46,0.2,0.-8,0.-10,7.62,11.54,90937.87,903.57,0.0,0.0,0.0
12517,2,12517,43,0.-20,9.96,1.31,0.5,0.-9,0.-9,7.56,11.54,90936.82,902.97,0.0,0.0,0.0
12569,2,12569,52,0.-8,9.87,1.32,0.4,0.-8,0.-6,7.56,11.54,90937.96,903.96,0.0,0.0,0.0
12615,2,12615,46,0.1,9.91,1.38,0.4,0.-7,0.-9,7.50,11.54,90934.63,903.17,0.0,0.0,0.0
12661,2,12661,46,0.-12,9.93,1.37,0.3,0.-8,0.-11,7.56,11.54,90935.77,903.68,0.0,0.0,0.0
12707,2,12707,46,0.-21,9.94,1.25,0.3,0.-8,0.-7,7.56,11.54,90935.77,903.97,0.0,0.0,0.0
12753,2,12753,46,0.-22,10.2,1.32,0.6,0.-7,0.-6,7.50,11.54,90935.77,903.67,0.0,0.0,0.0
12796,2,12796,43,0.5,9.89,1.42,0.2,0.-7,0.-9,7.56,11.54,90933.58,903.17,0.0,0.0,0.0
12842,2,12842,46,0.0,9.89,1.32,0.4,0.-8,0.-13,7.56,11.54,90930.25,903.28,0.0,0.0,0.0
12888,2,12888,46,0.12,9.98,1.14,0.2,0.-16,0.-18,7.50,11.55,90941.10,903.68,0.0,0.0,0.0
12934,2,12934,46,0.-48,10.19,1.57,0.1,0.-15,0.-24,7.50,11.54,90936.82,903.58,0.0,0.0,0.0
12980,2,12980,46,0.-73,9.92,1.40,0.6,0.-9,0.-17,7.56,11.54,90933.49,903.28,0.0,0.0,0.0
13026,2,13026,46,0.-40,9.75,1.41,0.7,0.-2,0.-4,7.56,11.55,90931.39,903.37,0.0,0.0,0.0
13074,2,13074,48,0.10,9.72,1.29,0.5,0.-3,0.-4,7.62,11.54,90933.58,903.57,0.0,0.0,0.0
13120,2,13120,46,0.0,9.98,1.45,0.0,0.-9,0.-9,7.56,11.54,90933.58,903.87,0.0,0.0,0.0
13166,2,13166,46,0.-82,9.90,1.28,0.7,0.-12,0.-12,7.56,11.54,90933.49,903.58,0.0,0.0,0.0
13212,2,13212,46,0.11,10.20,1.21,0.10,0.7,0.-14,7.56,11.55,90932.44,903.57,0.0,0.0,0.0
13259,2,13259,47,0.28,10.9,1.52,0.-2,0.2,0.-27,7.62,11.56,90933.49,903.8,0.0,0.0,0.0
13305,2,13305,46,0.-44,9.94,1.38,0.8,0.-15,0.-23,7.56,11.55,90934.63,903.8,0.0,0.0,0.0
13348,2,13348,43,0.-59,9.83,1.40,0.3,0.-18,0.-10,7.56,11.55,90933.49,903.38,0.0,0.0,0.0
13394,2,13394,46,0.-55,9.82,1.30,0.4,0.-7,0.-15,7.50,11.55,90933.49,902.79,0.0,0.0,0.0
13440,2,13440,46,0.-35,9.64,1.6,0.1,0.-3,0.-14,7.56,11.56,90943.21,903.79,0.0,0.0,0.0
13486,2,13486,46,0.4,9.95,1.36,0.-10,0.-9,0.-8,7.56,11.56,90939.87,903.48,0.0,0.0,0.0
13532,2,13532,46,0.-49,10.19,1.69,0.1,0.-24,0.-16,7.56,11.56,90935.58,903.60,0.0,0.0,0.0
13588,2,13588,56,-1.-22,9.98,1.46,0.7,0.-8,0.-11,7.56,11.56,90939.87,903.49,0.0,0.0,0.0
13634,2,13634,46,0.-67,9.95,1.65,0.8,0.2,0.-7,7.56,11.56,90934.44,903.59,0.0,0.0,0.0
13680,2,13680,46,0.-31,9.73,1.18,0.13,0.0,0.-11,7.56,11.56,90939.87,903.20,0.0,0.0,0.0
13726,2,13726,46,0.-43,9.80,1.3,0.4,0.-13,0.-6,7.56,11.57,90935.49,902.80,0.0,0.0,0.0
13772,2,13772,46,0.-51,10.10,1.67,0.0,0.-16,0.-1,7.50,11.57,90936.53,903.30,0.0,0.0,0.0
13818,2,13818,46,0.-30,10.5,1.45,0.6,0.-11,0.-7,7.56,11.56,90935.39,903.20,0.0,0.0,0.0
13871,2,13871,53,0.-54,9.85,1.33,0.5,0.-10,0.-16,7.62,11.56,90935.49,903.79,0.0,0.0,0.0
13917,2,13917,46,0.-70,9.87,1.41,0.7,0.-10,0.-8,7.56,11.56,90933.30,904.0,0.0,0.0,0.0
13963,2,13963,46,0.-46,9.86,1.49,0.8,0.-14,0.1,7.56,11.56,90936.53,903.10,0.0,0.0,0.0
14009,2,14009,46,0.-15,10.1,1.33,0.3,0.-12,0.-8,7.56,11.56,90938.73,903.49,0.0,0.0,0.0
14055,2,14055,46,0.-75,10.2,1.12,0.8,0.-7,0.-18,7.56,11.57,90937.68,903.10,0.0,0.0,0.0
14115,2,14115,60,0.-39,10.3,1.53,0.6,0.-9,0.2,7.56,11.55,90933.39,903.88,0.0,0.0,0.0
14158,2,14158,43,0.1,9.87,1.56,0.7,0.-12,0.0,7.62,11.56,90942.7,903.48,0.0,0.0,0.0
14204,2,14204,46,0.-35,9.84,1.18,0.1,0.-15,0.-13,7.56,11.56,90932.15,903.10,0.0,0.0,0.0
14250,2,14250,46,0.-71,9.96,1.45,0.-2,0.-10,0.-16,7.62,11.57,90933.21,902.51,0.0,0.0,0.0
14297,2,14297,47,0.-47,10.1,1.37,0.3,0.-4,0.-6,7.62,11.57,90935.49,903.60,0.0,0.0,0.0
14343,2,14343,46,0.9,9.81,1.43,0.1,0.-9,0.-9,7.56,11.57,90937.68,903.10,0.0,0.0,0.0
14389,2,14389,46,0.-43,9.76,1.23,0.1,0.-13,0.-16,7.62,11.56,90936.63,903.39,0.0,0.0,0.0
14432,2,14432,43,0.-56,10.0,1.55,0.1,0.-12,0.-11,7.56,11.56,90943.11,903.60,0.0,0.0,0.0
14478,2,14478,46,0.-41,9.99,1.43,0.6,0.-10,0.-9,7.56,11.57,90940.92,902.90,0.0,0.0,0.0
14524,2,14524,46,0.-37,9.90,1.47,0.3,0.-13,0.-7,7.50,11.56,90934.35,903.60,0.0,0.0,0.0
14570,2,14570,46,0.-40,9.83,1.37,0.6,0.-9,0.-9,7.56,11.57,90937.68,903.30,0.0,0.0,0.0
14621,2,14621,51,0.-41,9.82,1.47,0.0,0.-10,0.-11,7.56,11.56,90936.53,903.69,0.0,0.0,0.0
14667,2,14667,46,0.-44,9.92,1.39,0.0,0.-12,0.-12,7.56,11.56,90933.39,903.30,0.0,0.0,0.0
14710,2,14710,43,0.-54,10.6,1.43,0.3,0.-11,0.-9,7.56,11.57,90930.6,903.30,0.0,0.0,0.0
14756,2,14756,46,0.-43,9.92,1.62,0.6,0.-10,0.-7,7.50,11.56,90938.82,904.19,0.0,0.0,0.0
14802,2,14802,46,0.-43,9.64,1.22,0.7,0.-9,0.-6,7.56,11.56,90940.92,903.10,0.0,0.0,0.0
14848,2,14848,46,0.-21,10.4,1.54,0.0,0.-10,0.-6,7.56,11.57,90932.15,903.40,0.0,0.0,0.0
14894,2,14894,46,0.-35,10.17,1.52,0.0,0.-11,0.-9,7.56,11.57,90936.53,903.30,0.0,0.0,0.0
14940,2,14940,46,0.-34,9.85,1.55,0.6,0.-12,0.-10,7.50,11.57,90935.49,903.20,0.0,0.0,0.0
14983,2,14983,43,0.-75,9.90,1.57,0.1,0.-14,0.-3,7.56,11.57,90944.16,903.10,0.0,0.0,0.0
15029,2,15029,46,0.-79,10.39,1.80,0.0,0.-12,0.36,7.56,11.56,90933.21,903.60,0.0,0.0,0.0
15075,2,15075,46,0.92,9.56,1.40,0.22,0.-14,0.29,7.62,11.56,90928.82,903.10,0.0,0.0,0.0
15126,2,15126,51,0.57,9.40,0.72,0.3,0.-5,0.-35,7.62,11.56,90936.53,903.60,0.0,0.0,0.0
15172,2,15172,46,0.-46,10.4,1.44,0.-7,0.1,0.-57,7.62,11.58,90935.39,903.50,0.0,0.0,0.0
15221,2,15221,49,-1.0,10.29,1.83,0.8,0.-6,0.-20,7.56,11.57,90939.78,903.80,0.0,0.0,0.0
15267,2,15267,46,0.-19,9.76,1.54,0.11,0.-18,0.16,7.56,11.57,90933.21,903.30,0.0,0.0,0.0
15314,2,15314,47,0.18,9.62,1.7,0.7,0.-11,0.1,7.62,11.58,90933.21,903.41,0.0,0.0,0.0
15360,2,15360,46,0.-4,9.86,1.25,0.0,0.-2,0.-21,7.68,11.57,90939.78,903.1,0.0,0.0,0.0
15406,2,15406,46,0.-24,9.96,1.62,0.0,0.0,0.-31,7.62,11.57,90934.25,904.0,0.0,0.0,0.0
15452,2,15452,46,0.-45,10.12,1.71,0.4,0.-12,0.-10,7.56,11.57,90935.39,902.81,0.0,0.0,0.0
15501,2,15501,49,0.-44,9.83,1.38,0.10,0.-16,0.4,7.62,11.57,90937.59,903.10,0.0,0.0,0.0
15547,2,15547,46,0.-13,9.80,1.29,0.4,0.-9,0.0,7.62,11.57,90936.53,903.41,0.0,0.0,0.0
15593,2,15593,46,0.-9,10.2,1.62,0.3,0.-2,0.-14,7.62,11.58,90929.96,903.21,0.0,0.0,0.0
15644,2,15644,51,0.-24,9.79,1.29,0.8,0.-5,0.-16,7.62,11.56,90935.39,903.0,0.0,0.0,0.0
15690,2,15690,46,0.-26,9.92,1.28,0.3,0.-12,0.-9,7.68,11.57,90935.39,903.10,0.0,0.0,0.0
15736,2,15736,46,0.-55,9.87,1.61,0.8,0.-12,0.-6,7.68,11.57,90932.6,903.60,0.0,0.0,0.0
15779,2,15779,43,0.-21,9.82,1.33,0.7,0.-6,0.-1,7.62,11.57,90933.11,903.21,0.0,0.0,0.0
15825,2,15825,46,0.-23,9.87,1.38,0.5,0.-7,0.-1,7.68,11.58,90931.1,903.1,0.0,0.0,0.0
15871,2,15871,46,0.12,10.1,1.51,0.6,0.-8,0.-1,7.62,11.57,90938.64,903.41,0.0,0.0,0.0
15917,2,15917,46,0.-26,9.87,1.47,0.8,0.-11,0.-10,7.62,11.57,90936.53,903.40,0.0,0.0,0.0
15963,2,15963,46,0.-37,10.4,1.50,0.3,0.-8,0.-6,7.62,11.58,90935.39,903.41,0.0,0.0,0.0
16009,2,16009,46,0.-68,9.99,1.92,0.11,0.-17,0.19,7.62,11.57,90933.21,903.61,0.0,0.0,0.0
16053,2,16053,44,0.34,9.66,1.18,0.17,0.-15,0.36,7.62,11.57,90933.30,903.61,0.0,0.0,0.0
16099,2,16099,46,0.74,9.95,0.96,0.10,0.-12,0.10,7.62,11.57,90936.53,903.49,0.0,0.0,0.0
16159,2,16159,60,0.6,10.24,1.37,0.7,0.3,0.-26,7.62,11.56,90938.82,903.49,0.0,0.0,0.0
16205,2,16205,46,0.24,9.87,1.14,0.9,0.-2,0.-17,7.68,11.56,90934.35,902.90,0.0,0.0,0.0
16251,2,16251,46,0.32,9.75,1.9,0.8,0.-12,0.-9,7.68,11.56,90934.35,903.60,0.0,0.0,0.0
16297,2,16297,46,0.0,9.89,1.33,0.5,0.-16,0.-12,7.68,11.57,90938.73,903.19,0.0,0.0,0.0
16341,2,16341,44,0.-22,9.79,1.41,0.5,0.-7,0.-13,7.68,11.57,90932.15,903.60,0.0,0.0,0.0
16387,2,16387,46,0.-5,9.84,1.39,0.5,0.-5,0.-2,7.68,11.57,90934.35,903.60,0.0,0.0,0.0
16433,2,16433,46,0.27,9.97,1.45,0.4,0.-2,0.1,7.68,11.56,90931.1,903.1,0.0,0.0,0.0
16479,2,16479,46,0.46,10.0,1.9,0.7,0.-4,0.-4,7.75,11.57,90934.25,902.91,0.0,0.0,0.0
16525,2,16525,46,0.43,10.32,1.46,0.0,0.3,0.-25,7.68,11.58,90928.73,902.52,0.0,0.0,0.0
16571,2,16571,46,0.11,10.7,1.30,0.5,0.0,0.-32,7.68,11.57,90929.96,903.41,0.0,0.0,0.0
16614,2,16614,43,0.-9,9.77,0.96,0.4,0.-11,0.-16,7.75,11.57,90936.44,902.81,0.0,0.0,0.0
16666,2,16666,52,0.-21,9.99,1.16,0.4,0.-16,0.-1,7.75,11.57,90937.68,903.40,0.0,0.0,0.0
16712,2,16712,46,0.18,9.84,1.53,0.8,0.-12,0.-2,7.62,11.57,90937.59,903.10,0.0,0.0,0.0
16758,2,16758,46,0.-5,9.74,1.31,0.7,0.-7,0.-6,7.68,11.57,90927.67,903.21,0.0,0.0,0.0
16804,2,16804,46,0.9,9.91,1.20,0.5,0.-7,0.-4,7.68,11.58,90932.6,902.81,0.0,0.0,0.0
16850,2,16850,46,0.0,10.13,1.26,0.4,0.-9,0.0,7.75,11.57,90940.82,903.10,0.0,0.0,0.0
16893,2,16893,43,0.56,10.12,1.40,0.4,0.-7,0.-4,7.68,11.57,90934.25,902.91,0.0,0.0,0.0
16939,2,16939,46,0.-7,9.84,0.88,0.5,0.-10,0.-16,7.68,11.58,90932.6,903.51,0.0,0.0,0.0
16985,2,16985,46,0.-1,9.90,1.30,0.1,0.-10,0.-10,7.68,11.58,90933.11,903.32,0.0,0.0,0.0
17031,2,17031,46,0.19,10.3,1.45,0.5,0.-13,0.-6,7.75,11.58,90941.88,903.61,0.0,0.0,0.0
17077,2,17077,46,0.11,9.79,1.30,0.4,0.-12,0.-7,7.68,11.58,90935.30,903.11,0.0,0.0,0.0
17123,2,17123,46,0.-10,9.92,1.19,0.3,0.-7,0.-9,7.68,11.58,90936.44,902.91,0.0,0.0,0.0
17184,2,17184,61,0.30,10.9,1.32,0.3,0.-7,0.-8,7.75,11.56,90936.63,903.69,0.0,0.0,0.0
17230,2,17230,46,0.21,10.1,1.23,0.5,0.-13,0.-8,7.75,11.56,90937.59,902.90,0.0,0.0,0.0
17276,2,17276,46,0.2,9.84,1.23,0.7,0.-12,0.-9,7.75,11.58,90934.25,903.1,0.0,0.0,0.0
17322,2,17322,46,0.21,9.81,1.25,0.2,0.-7,0.-10,7.75,11.58,90942.92,903.51,0.0,0.0,0.0
17369,2,17369,47,0.10,10.5,1.42,0.0,0.-8,0.-11,7.68,11.58,90938.54,902.62,0.0,0.0,0.0
17415,2,17415,46,0.0,10.3,1.29,0.4,0.-9,0.-6,7.68,11.58,90943.2,903.80,0.0,0.0,0.0
17458,2,17458,43,0.24,9.91,1.20,0.6,0.-9,0.-4,7.75,11.58,90937.39,902.71,0.0,0.0,0.0
17504,2,17504,46,0.19,9.98,1.33,0.3,0.-9,0.-8,7.75,11.59,90933.1,903.22,0.0,0.0,0.0
17550,2,17550,46,0.24,9.94,1.35,0.3,0.-8,0.-12,7.75,11.59,90935.21,903.32,0.0,0.0,0.0
17596,2,17596,46,0.20,10.2,1.30,0.4,0.-8,0.-12,7.81,11.59,90940.64,903.51,0.0,0.0,0.0
17642,2,17642,46,0.11,9.94,1.23,0.4,0.-12,0.-11,7.68,11.59,90936.35,903.12,0.0,0.0,0.0
17693,2,17693,51,0.0,9.92,1.43,0.5,0.-9,0.-11,7.68,11.59,90941.88,903.62,0.0,0.0,0.0
17736,2,17736,43,0.-5,9.82,1.2,0.7,0.-6,0.-8,7.75,11.58,90937.39,902.63,0.0,0.0,0.0
17782,2,17782,46,0.28,10.6,1.48,0.2,0.-8,0.-7,7.68,11.58,90941.78,903.62,0.0,0.0,0.0
17828,2,17828,46,0.2,10.9,1.32,0.7,0.-10,0.-8,7.68,11.59,90938.45,903.42,0.0,0.0,0.0
17874,2,17874,46,0.22,9.84,1.17,0.6,0.-9,0.-11,7.68,11.59,90937.39,902.92,0.0,0.0,0.0
17920,2,17920,46,0.7,9.91,1.23,0.3,0.-10,0.-12,7.68,11.60,90937.30,903.92,0.0,0.0,0.0
17966,2,17966,46,0.4,10.3,1.47,0.3,0.-9,0.-8,7.68,11.60,90929.78,903.81,0.0,0.0,0.0
18009,2,18009,43,0.6,9.90,1.12,0.9,0.-7,0.-7,7.68,11.61,90935.21,903.23,0.0,0.0,0.0
18055,2,18055,46,0.30,9.80,1.11,0.5,0.-8,0.-8,7.75,11.59,90927.49,903.32,0.0,0.0,0.0
18101,2,18101,46,0.6,10.1,1.48,0.4,0.-11,0.-12,7.75,11.60,90938.35,902.73,0.0,0.0,0.0
18147,2,18147,46,0.-17,10.1,1.11,0.7,0.-8,0.-9,7.68,11.60,90935.11,902.83,0.0,0.0,0.0
18199,2,18199,52,0.50,9.93,1.30,0.2,0.-8,0.-8,7.68,11.59,90936.25,903.3,0.0,0.0,0.0
18252,2,18252,53,0.8,9.93,1.38,0.4,0.-12,0.-15,7.75,11.59,90933.1,903.52,0.0,0.0,0.0
18298,2,18298,46,0.-10,9.91,1.24,0.4,0.-9,0.-10,7.68,11.60,90941.78,902.83,0.0,0.0,0.0
18344,2,18344,46,0.27,9.94,1.39,0.3,0.-8,0.-7,7.75,11.58,90938.45,903.23,0.0,0.0,0.0
18391,2,18391,47,0.-11,10.0,1.26,0.4,0.-9,0.-10,7.75,11.60,90936.25,903.53,0.0,0.0,0.0
18437,2,18437,46,0.16,9.93,1.20,0.6,0.-7,0.-6,7.68,11.59,90941.59,903.42,0.0,0.0,0.0
18483,2,18483,46,0.39,9.98,1.40,0.2,0.-9,0.-8,7.75,11.60,90937.30,903.42,0.0,0.0,0.0
18531,2,18531,48,0.2,9.89,1.20,0.6,0.-12,0.-11,7.75,11.59,90935.11,902.93,0.0,0.0,0.0
18577,2,18577,46,0.10,9.93,1.40,0.2,0.-10,0.-11,7.75,11.60,90936.25,903.82,0.0,0.0,0.0
18623,2,18623,46,0.6,9.83,1.33,0.4,0.-12,0.-11,7.68,11.61,90935.11,903.13,0.0,0.0,0.0
18669,2,18669,46,0.7,9.92,1.14,0.3,0.-12,0.-7,7.75,11.60,90939.40,903.63,0.0,0.0,0.0
18730,2,18730,61,0.11,9.94,1.38,0.4,0.-12,0.-10,7.68,11.58,90937.39,903.12,0.0,0.0,0.0
18776,2,18776,46,0.8,9.91,1.29,0.5,0.-9,0.-14,7.68,11.59,90939.59,903.33,0.0,0.0,0.0
18819,2,18819,43,0.-11,9.88,1.32,0.4,0.-10,0.-12,7.68,11.60,90931.87,903.73,0.0,0.0,0.0
18865,2,18865,46,0.18,9.95,1.37,0.3,0.-9,0.-6,7.62,11.60,90937.30,903.53,0.0,0.0,0.0
18911,2,18911,46,0.23,10.0,1.23,0.5,0.-10,0.-11,7.81,11.61,90937.30,903.43,0.0,0.0,0.0
18957,2,18957,46,0.-14,9.96,1.44,0.4,0.-12,0.-14,7.68,11.60,90935.11,903.13,0.0,0.0,0.0
19003,2,19003,46,0.12,9.79,1.25,0.6,0.-8,0.-9,7.75,11.59,90936.25,903.23,0.0,0.0,0.0
19049,2,19049,46,0.24,9.81,1.27,0.2,0.-11,0.-10,7.75,11.60,90939.40,903.4,0.0,0.0,0.0
19092,2,19092,43,0.-19,9.99,1.25,0.3,0.-10,0.-11,7.75,11.61,90933.97,903.53,0.0,0.0,0.0
19138,2,19138,46,0.8,10.13,1.19,0.6,0.-9,0.-6,7.62,11.61,90940.54,903.23,0.0,0.0,0.0
19184,2,19184,46,0.15,9.91,1.34,0.5,0.-12,0.-11,7.68,11.61,90930.73,903.43,0.0,0.0,0.0
19235,2,19235,51,0.-1,9.89,1.34,0.5,0.-10,0.-9,7.75,11.59,90932.92,903.33,0.0,0.0,0.0
19281,2,19281,46,0.7,9.99,1.39,0.3,0.-9,0.-11,7.68,11.60,90941.68,903.23,0.0,0.0,0.0
19327,2,19327,46,0.-22,9.93,1.29,0.4,0.-7,0.-10,7.68,11.60,90938.35,903.53,0.0,0.0,0.0
19370,2,19370,43,0.28,9.94,1.29,0.5,0.-8,0.-5,7.68,11.60,90938.45,902.93,0.0,0.0,0.0
19417,2,19417,47,0.10,9.93,1.29,0.3,0.-10,0.-10,7.75,11.60,90937.30,902.84,0.0,0.0,0.0
19463,2,19463,46,0.-5,9.89,1.27,0.7,0.-7,0.-11,7.68,11.59,90939.50,903.3,0.0,0.0,0.0
19509,2,19509,46,0.4,9.96,1.31,0.2,0.-10,0.-5,7.75,11.60,90931.87,902.93,0.0,0.0,0.0
19555,2,19555,46,0.13,10.0,1.44,0.5,0.-9,0.-7,7.75,11.60,90933.97,902.93,0.0,0.0,0.0
19601,2,19601,46,0.0,9.86,1.21,0.4,0.-9,0.-13,7.75,11.60,90937.30,903.43,0.0,0.0,0.0
19644,2,19644,43,0.10,9.89,1.47,0.2,0.-9,0.-12,7.68,11.59,90940.54,903.62,0.0,0.0,0.0
19690,2,19690,46,0.-7,9.96,1.28,0.5,0.-10,0.-9,7.68,11.61,90939.50,903.63,0.0,0.0,0.0
19741,2,19741,51,0.-4,9.86,1.28,0.6,0.-9,0.-8,7.75,11.60,90938.35,902.64,0.0,0.0,0.0
19787,2,19787,46,0.-1,9.99,1.23,0.5,0.-6,0.-7,7.75,11.60,90931.87,903.33,0.0,0.0,0.0
19833,2,19833,46,0.27,9.98,1.32,0.4,0.-9,0.-7,7.68,11.60,90937.30,903.43,0.0,0.0,0.0
19879,2,19879,46,0.-1,10.0,1.19,0.4,0.-10,0.-12,7.75,11.61,90936.25,903.42,0.0,0.0,0.0
19922,2,19922,43,0.-8,9.86,1.32,0.4,0.-10,0.-10,7.75,11.60,90932.92,903.53,0.0,0.0,0.0
19968,2,19968,46,0.-1,9.93,1.42,0.4,0.-9,0.-7,7.75,11.60,90940.54,903.23,0.0,0.0,0.0
20014,2,20014,46,0.17,9.94,1.24,0.2,0.-8,0.-8,7.75,11.60,90939.50,903.54,0.0,0.0,0.0
20060,2,20060,46,0.4,10.0,1.39,0.3,0.-10,0.-10,7.68,11.60,90930.73,903.43,0.0,0.0,0.0
20106,2,20106,46,0.5,9.94,1.26,0.5,0.-10,0.-10,7.68,11.60,90940.54,903.63,0.0,0.0,0.0
20152,2,20152,46,0.-15,10.0,1.29,0.6,0.-10,0.-9,7.68,11.60,90935.2,903.23,0.0,0.0,0.0
20195,2,20195,43,0.20,9.93,1.36,0.3,0.-8,0.-6,7.75,11.60,90935.11,903.73,0.0,0.0,0.0
20246,2,20246,51,0.15,9.94,1.22,0.4,0.-9,0.-11,7.68,11.60,90936.16,903.23,0.0,0.0,0.0
20292,2,20292,46,0.-9,9.93,1.30,0.5,0.-11,0.-10,7.81,11.61,90933.97,903.34,0.0,0.0,0.0
20338,2,20338,46,0.0,9.93,1.35,0.5,0.-9,0.-7,7.68,11.60,90938.35,903.3,0.0,0.0,0.0
20384,2,20384,46,0.0,9.93,1.29,0.4,0.-7,0.-9,7.68,11.61,90938.35,902.94,0.0,0.0,0.0
20431,2,20431,47,0.17,9.98,1.26,0.6,0.-8,0.-6,7.75,11.61,90936.16,902.64,0.0,0.0,0.0
20474,2,20474,43,0.7,10.2,1.46,0.5,0.-12,0.-8,7.68,11.61,90939.40,903.14,0.0,0.0,0.0
20520,2,20520,46,0.10,9.93,1.33,0.8,0.-6,0.-13,7.68,11.60,90939.40,903.54,0.0,0.0,0.0
20566,2,20566,46,0.38,9.76,1.15,0.9,0.-5,0.-18,7.75,11.61,90938.35,903.23,0.0,0.0,0.0
20612,2,20612,46,0.-36,9.84,1.16,0.4,0.-10,0.-11,7.75,11.61,90935.2,903.43,0.0,0.0,0.0
20658,2,20658,46,0.17,10.6,1.42,0.5,0.-11,0.0,7.75,11.61,90939.40,903.74,0.0,0.0,0.0
20704,2,20704,46,0.-3,9.88,1.22,0.5,0.-9,0.-8,7.75,11.61,90937.30,902.64,0.0,0.0,0.0
20761,2,20761,57,0.-45,9.82,1.37,0.5,0.0,0.3,7.68,11.59,90935.11,902.73,0.0,0.0,0.0
20807,2,20807,46,0.92,9.89,1.18,0.6,0.-6,0.5,7.68,11.59,90931.87,903.63,0.0,0.0,0.0
20853,2,20853,46,0.28,10.20,1.28,0.-2,0.-14,0.-6,7.75,11.60,90937.30,903.14,0.0,0.0,0.0
20899,2,20899,46,0.-2,10.20,1.45,0.8,0.-7,0.-7,7.68,11.61,90929.49,903.63,0.0,0.0,0.0
20945,2,20945,46,0.51,9.76,1.0,0.8,0.-6,0.-17,7.68,11.61,90940.45,903.54,0.0,0.0,0.0
20994,2,20994,49,0.-5,9.87,1.27,0.0,0.-11,0.-17,7.68,11.61,90935.2,903.74,0.0,0.0,0.0
21040,2,21040,46,0.-5,10.7,1.43,0.4,0.-11,0.-8,7.75,11.61,90941.50,903.74,0.0,0.0,0.0
21086,2,21086,46,0.19,9.87,1.35,0.5,0.-10,0.-8,7.68,11.61,90932.82,902.74,0.0,0.0,0.0
21132,2,21132,46,0.9,9.82,1.10,0.4,0.-9,0.-12,7.68,11.62,90941.50,903.74,0.0,0.0,0.0
21178,2,21178,46,0.8,10.0,1.33,0.4,0.-9,0.-9,7.75,11.62,90933.87,903.64,0.0,0.0,0.0
21224,2,21224,46,0.16,9.93,1.27,0.5,0.-12,0.-9,7.75,11.62,90933.87,903.54,0.0,0.0,0.0
21280,2,21280,56,0.2,9.95,1.24,0.2,0.-10,0.-12,7.75,11.60,90937.30,903.63,0.0,0.0,0.0
21326,2,21326,46,0.9,9.96,1.38,0.5,0.-6,0.-9,7.68,11.61,90930.64,903.54,0.0,0.0,0.0
21372,2,21372,46,0.19,9.94,1.16,0.5,0.-10,0.-9,7.75,11.61,90931.78,902.64,0.0,0.0,0.0
21418,2,21418,46,0.7,9.92,1.14,0.3,0.-10,0.-10,7.81,11.60,90930.73,903.24,0.0,0.0,0.0
21465,2,21465,47,0.13,9.98,1.35,0.5,0.-9,0.-11,7.75,11.61,90945.88,902.45,0.0,0.0,0.0
21511,2,21511,46,0.29,9.90,1.35,0.3,0.-10,0.-10,7.81,11.62,90933.87,903.35,0.0,0.0,0.0
21560,2,21560,49,0.-9,9.84,1.31,0.6,0.-11,0.-13,7.68,11.62,90938.16,902.45,0.0,0.0,0.0
21606,2,21606,46,0.22,10.11,1.24,0.0,0.-8,0.-8,7.75,11.61,90938.26,902.55,0.0,0.0,0.0
21652,2,21652,46,0.10,10.10,1.28,0.7,0.-12,0.-15,7.81,11.61,90937.11,903.44,0.0,0.0,0.0
21698,2,21698,46,0.-5,9.99,1.22,0.5,0.-13,0.-13,7.75,11.61,90937.11,903.34,0.0,0.0,0.0
21744,2,21744,46,0.-4,9.91,1.35,0.4,0.-10,0.-13,7.81,11.62,90935.97,903.55,0.0,0.0,0.0
21795,2,21795,51,0.-10,9.87,1.28,0.5,0.-8,0.-8,7.75,11.61,90939.31,903.24,0.0,0.0,0.0
21838,2,21838,43,0.28,9.98,1.34,0.3,0.-9,0.-7,7.81,11.61,90934.92,903.64,0.0,0.0,0.0
21884,2,21884,46,0.4,9.95,1.30,0.4,0.-11,0.-11,7.81,11.62,90931.59,903.15,0.0,0.0,0.0
21930,2,21930,46,0.10,10.10,1.35,0.4,0.-10,0.-10,7.75,11.62,90938.16,903.64,0.0,0.0,0.0
21976,2,21976,46,0.-15,9.87,1.10,0.8,0.-10,0.-12,7.75,11.62,90933.78,903.16,0.0,0.0,0.0
22022,2,22022,46,0.-13,9.95,1.23,0.4,0.-9,0.-7,7.75,11.62,90933.78,903.25,0.0,0.0,0.0
22068,2,22068,46,0.-8,9.94,1.27,0.9,0.-8,0.-4,7.81,11.62,90932.73,903.94,0.0,0.0,0.0
22111,2,22111,43,0.28,9.93,1.15,0.4,0.-6,0.-5,7.81,11.62,90931.68,903.25,0.0,0.0,0.0
22157,2,22157,46,0.26,9.99,1.44,0.4,0.-12,0.-14,7.81,11.62,90933.87,903.35,0.0,0.0,0.0
22203,2,22203,46,0.-11,9.89,0.98,0.5,0.-13,0.-13,7.81,11.62,90938.7,903.55,0.0,0.0,0.0
22249,2,22249,46,0.0,9.82,1.23,0.5,0.-10,0.-11,7.75,11.62,90934.92,903.16,0.0,0.0,0.0
22300,2,22300,51,0.-17,9.99,1.48,0.2,0.-11,0.-9,7.75,11.62,90930.54,903.5,0.0,0.0,0.0
22346,2,22346,46,0.1,9.85,1.1,0.10,0.-7,0.-3,7.75,11.62,90939.31,903.55,0.0,0.0,0.0
22389,2,22389,43,0.22,10.4,0.98,0.3,0.-8,0.-3,7.81,11.61,90934.92,903.85,0.0,0.0,0.0
22435,2,22435,46,0.20,10.24,1.66,0.7,0.-9,0.-11,7.75,11.62,90937.11,902.65,0.0,0.0,0.0
22482,2,22482,47,0.-7,9.89,1.2,0.11,0.-6,0.-14,7.75,11.62,90932.64,902.85,0.0,0.0,0.0
22528,2,22528,46,0.-4,9.80,1.26,0.2,0.-5,0.-12,7.81,11.62,90940.26,903.35,0.0,0.0,0.0
22574,2,22574,46,0.23,9.90,1.22,0.5,0.-4,0.-12,7.81,11.62,90937.11,904.5,0.0,0.0,0.0
22620,2,22620,46,0.18,9.88,1.4,0.2,0.-10,0.-14,7.81,11.62,90936.7,903.65,0.0,0.0,0.0
22664,2,22664,44,0.-19,10.8,1.13,0.7,0.-13,0.-14,7.75,11.62,90937.2,903.35,0.0,0.0,0.0
22710,2,22710,46,0.9,9.96,1.5,0.9,0.-8,0.-16,7.75,11.62,90932.73,903.45,0.0,0.0,0.0
22756,2,22756,46,0.-30,9.83,1.7,0.4,0.-13,0.-19,7.81,11.62,90932.73,903.45,0.0,0.0,0.0
22817,2,22817,61,0.-15,9.96,1.39,0.3,0.-10,0.-11,7.87,11.61,90931.68,903.44,0.0,0.0,0.0
22863,2,22863,46,0.-16,10.1,1.1,0.5,0.-10,0.-9,7.87,11.62,90934.92,903.25,0.0,0.0,0.0
22909,2,22909,46,0.-42,9.86,1.16,0.4,0.-6,0.-10,7.81,11.62,90939.31,903.94,0.0,0.0,0.0
22951,2,22951,42,0.-16,9.88,1.0,0.6,0.-5,0.-3,7.75,11.62,90928.35,903.74,0.0,0.0,0.0
22997,2,22997,46,0.-11,9.96,1.22,0.5,0.-7,0.0,7.75,11.62,90937.2,903.45,0.0,0.0,0.0
23043,2,23043,46,0.11,10.6,1.31,0.4,0.-7,0.0,7.75,11.62,90932.64,903.75,0.0,0.0,0.0
23089,2,23089,46,0.16,10.6,1.21,0.6,0.-7,0.-7,7.81,11.62,90937.2,903.55,0.0,0.0,0.0
23135,2,23135,46,0.-5,10.4,1.12,0.7,0.-9,0.-11,7.75,11.63,90930.44,903.55,0.0,0.0,0.0
23181,2,23181,46,0.-2,9.97,1.12,0.6,0.-10,0.-5,7.75,11.63,90941.40,903.24,0.0,0.0,0.0
23224,2,23224,43,0.22,9.93,1.22,0.6,0.-11,0.-7,7.75,11.62,90931.59,903.26,0.0,0.0,0.0
23270,2,23270,46,0.-12,9.89,0.98,0.3,0.-8,0.-11,7.81,11.62,90942.45,903.85,0.0,0.0,0.0
23322,2,23322,52,0.0,10.10,1.30,0.3,0.-8,0.-6,7.87,11.62,90938.16,903.15,0.0,0.0,0.0
23368,2,23368,46,0.17,10.1,1.22,0.8,0.-11,0.-7,7.81,11.63,90934.83,903.36,0.0,0.0,0.0
23414,2,23414,46,0.19,10.7,1.18,0.5,0.-12,0.-13,7.81,11.63,90935.88,903.16,0.0,0.0,0.0
23463,2,23463,49,0.-12,9.93,1.22,0.8,0.-11,0.-17,7.81,11.62,90943.60,903.16,0.0,0.0,0.0
23510,2,23510,47,0.4,9.82,0.97,0.6,0.-10,0.-15,7.81,11.62,90929.39,902.85,0.0,0.0,0.0
23556,2,23556,46,0.-16,9.97,1.11,0.7,0.-13,0.-16,7.75,11.62,90940.26,903.36,0.0,0.0,0.0
23602,2,23602,46,0.-30,10.1,1.9,0.7,0.-11,0.-10,7.75,11.63,90939.12,903.95,0.0,0.0,0.0
23648,2,23648,46,0.12,9.94,1.1,0.8,0.-10,0.-8,7.81,11.63,90939.21,903.35,0.0,0.0,0.0
23694,2,23694,46,0.-10,10.5,1.13,0.4,0.-11,0.-12,7.75,11.64,90932.64,903.6,0.0,0.0,0.0
23743,2,23743,49,0.-13,10.1,1.19,0.8,0.-9,0.-11,7.75,11.62,90929.30,902.86,0.0,0.0,0.0
23789,2,23789,46,0.-10,10.1,0.97,0.10,0.-7,0.-11,7.81,11.63,90930.35,903.35,0.0,0.0,0.0
23840,2,23840,51,0.-2,9.89,1.4,0.8,0.-7,0.-11,7.81,11.62,90940.26,903.6,0.0,0.0,0.0
23886,2,23886,46,0.-18,10.5,1.10,0.8,0.-12,0.-9,7.75,11.63,90932.64,902.96,0.0,0.0,0.0
23932,2,23932,46,0.-11,9.99,0.95,0.9,0.-6,0.-7,7.81,11.63,90937.2,903.46,0.0,0.0,0.0
23978,2,23978,46,0.4,9.91,0.76,0.10,0.-6,0.-11,7.81,11.63,90934.73,903.27,0.0,0.0,0.0
24021,2,24021,43,0.-18,10.11,1.14,0.7,0.-10,0.-13,7.75,11.62,90936.83,903.66,0.0,0.0,0.0
24067,2,24067,46,0.-31,10.3,0.93,0.9,0.-8,0.-8,7.81,11.63,90927.11,903.36,0.0,0.0,0.0
24113,2,24113,46,0.-13,9.93,0.82,0.12,0.-7,0.-8,7.75,11.64,90935.78,903.56,0.0,0.0,0.0
24159,2,24159,46,0.-1,9.91,0.76,0.4,0.-9,0.-8,7.75,11.64,90933.68,903.67,0.0,0.0,0.0
24205,2,24205,46,0.-19,10.7,1.6,0.4,0.-12,0.-8,7.81,11.64,90934.73,903.27,0.0,0.0,0.0
24251,2,24251,46,0.-15,10.18,1.2,0.10,0.-6,0.-8,7.75,11.63,90936.92,903.76,0.0,0.0,0.0
24294,2,24294,43,0.-10,9.93,0.75,0.10,0.-5,0.-12,7.81,11.64,90933.68,903.26,0.0,0.0,0.0
24345,2,24345,51,0.-18,10.2,0.74,0.8,0.-4,0.-13,7.81,11.62,90938.7,903.16,0.0,0.0,0.0
24391,2,24391,46,0.-32,10.11,0.88,0.8,0.-5,0.-7,7.81,11.62,90936.92,903.36,0.0,0.0,0.0
24437,2,24437,46,0.-7,9.93,0.71,0.10,0.-3,0.-6,7.81,11.64,90935.78,903.56,0.0,0.0,0.0
24483,2,24483,46,0.-2,9.93,0.74,0.7,0.-4,0.-10,7.81,11.63,90930.35,903.76,0.0,0.0,0.0
24530,2,24530,47,0.-7,9.95,0.70,0.4,0.-9,0.-12,7.81,11.64,90931.50,903.36,0.0,0.0,0.0
24573,2,24573,43,0.-27,10.9,0.81,0.8,0.-9,0.-11,7.81,11.63,90929.21,902.67,0.0,0.0,0.0
24619,2,24619,46,0.-22,9.96,0.57,0.8,0.-6,0.-8,7.81,11.64,90930.35,903.47,0.0,0.0,0.0
24665,2,24665,46,0.6,9.92,0.67,0.5,0.-7,0.-12,7.81,11.64,90929.21,903.57,0.0,0.0,0.0
24711,2,24711,46,0.-22,10.7,0.83,0.2,0.-10,0.-14,7.87,11.64,90932.45,903.87,0.0,0.0,0.0
24757,2,24757,46,0.-34,9.97,0.66,0.7,0.-9,0.-9,7.75,11.64,90932.45,903.27,0.0,0.0,0.0
24803,2,24803,46,0.-3,9.84,0.71,0.4,0.-6,0.-9,7.81,11.64,90932.64,903.16,0.0,0.0,0.0
24873,2,24873,70,0.-18,10.14,0.80,0.1,0.-11,0.-8,7.75,11.62,90930.64,903.5,0.0,0.0,0.0
24919,2,24919,46,0.-25,9.97,0.90,0.6,0.-12,0.-9,7.81,11.62,90937.2,903.46,0.0,0.0,0.0
24965,2,24965,46,0.-13,9.88,0.64,0.3,0.-8,0.-12,7.75,11.63,90938.7,903.55,0.0,0.0,0.0
25011,2,25011,46,0.-21,10.3,0.90,0.0,0.-10,0.-10,7.75,11.64,90935.88,904.6,0.0,0.0,0.0
25057,2,25057,46,0.-22,10.11,0.84,0.4,0.-9,0.-6,7.81,11.64,90942.35,903.56,0.0,0.0,0.0
25103,2,25103,46,0.-21,9.98,0.51,0.5,0.-9,0.-6,7.81,11.63,90936.92,903.6,0.0,0.0,0.0
25146,2,25146,43,0.-8,10.1,0.68,0.4,0.-6,0.-9,7.81,11.64,90932.54,903.76,0.0,0.0,0.0
25192,2,25192,46,0.0,10.3,0.58,0.4,0.-7,0.-10,7.87,11.63,90939.2,903.57,0.0,0.0,0.0
25238,2,25238,46,0.-17,10.8,0.61,0.4,0.-15,0.-8,7.81,11.64,90933.59,903.67,0.0,0.0,0.0
25284,2,25284,46,0.-29,10.2,0.86,0.3,0.-13,0.-6,7.81,11.64,90935.68,903.37,0.0,0.0,0.0
25330,2,25330,46,0.-13,10.1,0.72,0.6,0.-7,0.-8,7.81,11.65,90927.1,903.68,0.0,0.0,0.0
25382,2,25382,52,0.-7,9.90,0.75,0.0,0.-10,0.-11,7.81,11.64,90934.83,903.16,0.0,0.0,0.0
25425,2,25425,43,0.-22,10.0,0.87,0.0,0.-9,0.-11,7.81,11.63,90934.54,902.67,0.0,0.0,0.0
25471,2,25471,46,0.-18,10.6,0.74,0.3,0.-8,0.-5,7.81,11.64,90932.45,902.96,0.0,0.0,0.0
25517,2,25517,46,0.-26,9.93,0.67,0.7,0.-6,0.-6,7.81,11.64,90932.54,903.57,0.0,0.0,0.0
25564,2,25564,47,0.-12,10.10,0.79,0.6,0.-5,0.-5,7.81,11.65,90925.87,903.17,0.0,0.0,0.0
25610,2,25610,46,0.32,10.6,0.69,0.7,0.-7,0.-6,7.87,11.64,90935.68,903.57,0.0,0.0,0.0
25659,2,25659,49,0.-17,10.4,0.65,0.1,0.-16,0.-9,7.87,11.65,90942.26,903.8,0.0,0.0,0.0
25705,2,25705,46,0.-13,9.87,0.94,0.4,0.-12,0.-13,7.87,11.65,90931.30,903.97,0.0,0.0,0.0
25751,2,25751,46,0.-9,9.88,0.85,0.1,0.-7,0.-15,7.81,11.65,90937.88,903.48,0.0,0.0,0.0
25797,2,25797,46,0.-55,9.87,0.73,0.4,0.-12,0.-8,7.81,11.65,90930.25,903.68,0.0,0.0,0.0
25843,2,25843,46,0.6,9.98,0.83,0.5,0.-8,0.-1,7.87,11.65,90935.68,903.18,0.0,0.0,0.0
25894,2,25894,51,0.-19,10.7,0.95,0.5,0.-11,0.-13,7.81,11.64,90932.45,903.48,0.0,0.0,0.0
25937,2,25937,43,0.-15,10.11,0.54,0.1,0.-8,0.-10,7.81,11.65,90933.50,903.38,0.0,0.0,0.0
25983,2,25983,46,0.-14,10.24,0.90,0.6,0.-8,0.-8,7.81,11.66,90931.21,903.88,0.0,0.0,0.0
26029,2,26029,46,0.3,9.77,0.69,0.6,0.-8,0.-9,7.81,11.66,90929.11,903.78,0.0,0.0,0.0
26075,2,26075,46,0.-4,10.1,0.65,0.1,0.-11,0.-11,7.81,11.66,90933.40,903.48,0.0,0.0,0.0
26121,2,26121,46,0.-8,10.0,0.99,0.0,0.-16,0.-6,7.81,11.66,90937.78,903.58,0.0,0.0,0.0
26167,2,26167,46,0.-41,9.99,0.71,0.9,0.-12,0.-6,7.81,11.65,90941.12,903.28,0.0,0.0,0.0
26210,2,26210,43,0.16,10.1,0.84,0.4,0.-8,0.-4,7.87,11.66,90934.54,902.98,0.0,0.0,0.0
26256,2,26256,46,0.15,9.95,0.84,0.5,0.-13,0.-11,7.81,11.65,90931.30,902.78,0.0,0.0,0.0
26302,2,26302,46,0.-45,9.93,0.82,0.5,0.-13,0.-9,7.81,11.65,90941.3,903.18,0.0,0.0,0.0
26348,2,26348,46,0.-5,9.91,0.86,0.5,0.-5,0.-8,7.87,11.65,90925.78,903.28,0.0,0.0,0.0
26400,2,26400,52,0.-8,10.5,0.66,0.4,0.-8,0.-7,7.81,11.65,90927.1,902.97,0.0,0.0,0.0
26446,2,26446,46,0.2,10.8,0.77,0.6,0.-13,0.-4,7.87,11.65,90933.50,903.48,0.0,0.0,0.0
26489,2,26489,43,0.0,9.97,0.83,0.7,0.-8,0.-13,7.87,11.65,90938.92,903.28,0.0,0.0,0.0
26535,2,26535,46,0.-24,10.7,0.89,0.9,0.-1,0.-12,7.87,11.64,90936.74,903.48,0.0,0.0,0.0
26582,2,26582,47,0.14,9.92,0.88,0.8,0.-5,0.-6,7.81,11.65,90937.78,903.38,0.0,0.0,0.0
26628,2,26628,46,0.-20,10.3,0.67,0.9,0.-6,0.-9,7.87,11.65,90933.40,903.9,0.0,0.0,0.0
26674,2,26674,46,0.19,10.7,0.67,0.10,0.-3,0.-9,7.87,11.66,90936.74,903.68,0.0,0.0,0.0
26720,2,26720,46,0.28,9.80,0.86,0.0,0.-20,0.-14,7.87,11.65,90933.50,903.68,0.0,0.0,0.0
26763,2,26763,43,0.-51,10.8,0.89,0.0,0.-22,0.-14,7.87,11.66,90933.40,903.58,0.0,0.0,0.0
26809,2,26809,46,0.-7,10.4,0.96,0.0,0.-12,0.-7,7.93,11.66,90933.40,902.99,0.0,0.0,0.0
26855,2,26855,46,0.-20,10.8,0.69,0.1,0.-10,0.-18,7.93,11.66,90934.45,903.79,0.0,0.0,0.0
26907,2,26907,52,0.-8,9.93,1.0,0.2,0.-11,0.-8,7.87,11.65,90937.78,903.29,0.0,0.0,0.0
26953,2,26953,46,0.3,10.9,0.81,0.5,0.-14,0.-9,8.0,11.66,90935.59,903.48,0.0,0.0,0.0
26999,2,26999,46,0.-21,10.14,0.87,0.2,0.-12,0.-13,7.93,11.67,90932.35,903.87,0.0,0.0,0.0
27046,2,27046,47,0.-20,10.16,0.86,0.8,0.-13,0.-18,7.93,11.66,90932.25,903.38,0.0,0.0,0.0
27092,2,27092,46,0.-46,9.76,0.73,0.5,0.-11,0.-17,7.93,11.66,90936.64,903.79,0.0,0.0,0.0
27138,2,27138,46,0.-50,9.69,0.66,0.8,0.-1,0.-2,7.93,11.66,90939.97,903.19,0.0,0.0,0.0
27184,2,27184,46,0.13,10.12,0.83,0.2,0.-5,0.5,7.93,11.66,90942.7,903.39,0.0,0.0,0.0
27230,2,27230,46,0.20,10.26,0.86,0.6,0.-7,0.0,7.93,11.67,90939.97,902.60,0.0,0.0,0.0
27276,2,27276,46,0.33,9.99,0.93,0.7,0.-10,0.-14,7.87,11.66,90926.92,903.9,0.0,0.0,0.0
27319,2,27319,43,0.-15,9.87,0.69,0.2,0.-7,0.-31,7.93,11.66,90935.59,902.59,0.0,0.0,0.0
27365,2,27365,46,0.-71,9.76,0.88,0.-2,0.-2,0.-24,7.93,11.66,90936.64,903.79,0.0,0.0,0.0
27424,2,27424,59,0.0,10.4,0.61,0.0,0.-7,0.-1,7.93,11.64,90929.2,903.98,0.0,0.0,0.0
27470,2,27470,46,0.7,10.24,1.0,0.0,0.-14,0.-13,7.93,11.66,90941.12,903.18,0.0,0.0,0.0
27516,2,27516,46,0.-52,9.87,0.94,0.3,0.-14,0.-18,7.93,11.65,90929.2,903.49,0.0,0.0,0.0
27565,2,27565,49,0.-17,9.97,0.89,0.1,0.-10,0.-16,7.93,11.67,90927.96,903.29,0.0,0.0,0.0
27612,2,27612,47,0.-53,9.91,0.91,0.0,0.-14,0.-13,7.87,11.66,90935.59,903.29,0.0,0.0,0.0
27658,2,27658,46,0.-45,9.97,0.99,0.3,0.-14,0.0,8.0,11.66,90931.11,903.29,0.0,0.0,0.0
27704,2,27704,46,0.5,9.99,0.83,0.3,0.-11,0.-3,8.0,11.67,90933.31,903.50,0.0,0.0,0.0
27750,2,27750,46,0.-26,9.92,1.0,0.0,0.-12,0.-20,7.87,11.67,90936.54,903.40,0.0,0.0,0.0
27796,2,27796,46,0.-76,9.93,0.93,0.6,0.-8,0.-16,7.93,11.67,90936.54,903.20,0.0,0.0,0.0
27845,2,27845,49,0.0,9.86,1.0,0.5,0.-8,0.-2,7.87,11.68,90939.88,903.29,0.0,0.0,0.0
27891,2,27891,46,0.-35,10.11,0.81,0.2,0.-15,0.-10,7.93,11.67,90930.7,903.10,0.0,0.0,0.0
27944,2,27944,53,0.-38,10.13,1.7,0.6,0.-6,0.-12,7.93,11.67,90928.92,903.9,0.0,0.0,0.0
27990,2,27990,46,0.-41,9.82,0.87,0.7,0.-11,0.-10,7.93,11.67,90938.83,903.59,0.0,0.0,0.0
28036,2,28036,46,0.-18,10.4,0.95,0.1,0.-13,0.-7,7.87,11.67,90939.78,903.19,0.0,0.0,0.0
28082,2,28082,46,0.-28,10.15,0.96,0.3,0.-11,0.-13,7.93,11.68,90939.88,903.1,0.0,0.0,0.0
28125,2,28125,43,0.-24,9.89,0.80,0.5,0.-10,0.-17,7.93,11.68,90935.40,903.30,0.0,0.0,0.0
28171,2,28171,46,0.-51,9.98,0.95,0.5,0.-14,0.-13,7.87,11.68,90939.78,902.80,0.0,0.0,0.0
28217,2,28217,46,0.-44,9.99,1.24,0.12,0.-7,0.-7,7.93,11.68,90936.45,903.20,0.0,0.0,0.0
28263,2,28263,46,0.-26,9.80,0.71,0.15,0.-3,0.-7,7.87,11.69,90936.45,903.50,0.0,0.0,0.0
28309,2,28309,46,0.-18,10.10,0.82,0.7,0.-7,0.-9,8.0,11.69,90933.31,902.81,0.0,0.0,0.0
28355,2,28355,46,0.-25,10.24,0.68,0.11,0.-13,0.-8,7.87,11.68,90932.25,903.19,0.0,0.0,0.0
28398,2,28398,43,0.-14,10.14,0.93,0.11,0.-17,0.-10,7.87,11.67,90933.31,903.0,0.0,0.0,0.0
28449,2,28449,51,0.-60,9.97,0.78,0.16,0.-12,0.-17,7.87,11.68,90932.25,903.20,0.0,0.0,0.0
28495,2,28495,46,0.-40,9.87,1.10,0.16,0.0,0.-12,7.93,11.67,90934.35,902.70,0.0,0.0,0.0
28541,2,28541,46,0.-95,9.71,0.40,0.17,0.0,0.-8,7.93,11.68,90939.78,902.60,0.0,0.0,0.0
28587,2,28587,46,0.-55,10.6,0.65,0.17,0.15,0.1,7.87,11.68,90933.21,903.29,0.0,0.0,0.0
28634,2,28634,47,0.3,10.17,0.66,0.25,0.9,0.2,7.93,11.68,90932.16,903.19,0.0,0.0,0.0
28677,2,28677,43,0.-14,10.6,0.24,0.18,0.3,0.-9,7.93,11.67,90933.21,903.40,0.0,0.0,0.0
28723,2,28723,46,0.-22,9.78,0.29,0.21,0.4,0.-17,7.87,11.68,90934.45,903.9,0.0,0.0,0.0
28769,2,28769,46,0.-63,9.96,0.-33,0.21,0.0,0.2,7.87,11.68,90937.60,903.40,0.0,0.0,0.0
28815,2,28815,46,0.52,10.1,0.20,0.4,0.-11,0.19,7.93,11.68,90940.83,903.30,0.0,0.0,0.0
28861,2,28861,46,0.-58,9.97,0.57,0.8,0.-13,0.8,7.93,11.68,90938.64,903.41,0.0,0.0,0.0
28907,2,28907,46,0.13,9.77,0.-2,0.6,0.0,0.-5,7.87,11.68,90940.92,903.29,0.0,0.0,0.0
28955,2,28955,48,0.-30,9.99,0.16,0.-7,0.-2,0.-8,7.93,11.67,90934.35,903.50,0.0,0.0,0.0
29001,2,29001,46,0.10,10.25,0.25,0.4,0.-10,0.8,7.93,11.67,90937.60,903.29,0.0,0.0,0.0
29047,2,29047,46,0.44,10.10,0.9,0.0,0.-24,0.7,7.93,11.68,90937.60,903.31,0.0,0.0,0.0
29093,2,29093,46,0.26,10.10,0.64,0.8,0.-21,0.-1,7.87,11.68,90938.64,903.30,0.0,0.0,0.0
29139,2,29139,46,0.25,9.90,0.-2,0.9,0.-21,0.-5,8.0,11.68,90938.64,903.50,0.0,0.0,0.0
29185,2,29185,46,0.-19,9.98,0.61,0.2,0.-17,0.-8,7.93,11.68,90937.60,903.20,0.0,0.0,0.0
29229,2,29229,44,0.10,9.74,0.24,0.1,0.0,0.-15,7.87,11.68,90935.40,903.80,0.0,0.0,0.0
29275,2,29275,46,0.13,10.16,0.0,0.-2,0.-8,0.-8,7.87,11.67,90931.11,903.40,0.0,0.0,0.0
29321,2,29321,46,0.37,10.14,0.33,0.5,0.-15,0.4,7.87,11.69,90936.45,903.11,0.0,0.0,0.0
29367,2,29367,46,0.6,9.91,0.33,0.5,0.-15,0.-4,7.93,11.69,90936.45,902.91,0.0,0.0,0.0
29413,2,29413,46,0.13,10.3,0.26,0.6,0.-3,0.-14,7.93,11.68,90930.92,903.11,0.0,0.0,0.0
29477,2,29477,64,0.11,9.99,0.16,0.0,0.-7,0.-9,7.81,11.67,90928.92,903.19,0.0,0.0,0.0
29523,2,29523,46,0.20,9.99,0.55,0.0,0.-16,0.1,7.93,11.68,90932.25,903.0,0.0,0.0,0.0
29569,2,29569,46,0.17,9.99,0.35,0.2,0.-11,0.-4,7.87,11.68,90936.45,903.40,0.0,0.0,0.0
29615,2,29615,46,0.10,10.16,0.62,0.1,0.-4,0.-14,7.93,11.69,90932.16,903.60,0.0,0.0,0.0
29662,2,29662,47,0.41,9.83,0.16,0.11,0.-2,0.-11,8.0,11.69,90938.64,903.80,0.0,0.0,0.0
29708,2,29708,46,0.27,10.9,0.22,0.0,0.-8,0.-11,7.87,11.69,90930.92,903.61,0.0,0.0,0.0
29757,2,29757,49,0.10,10.4,0.58,0.5,0.-10,0.-3,7.93,11.69,90936.45,902.81,0.0,0.0,0.0
29803,2,29803,46,0.20,9.90,0.10,0.-2,0.-6,0.-14,7.87,11.69,90932.7,903.90,0.0,0.0,0.0
29849,2,29849,46,0.0,10.31,0.88,0.0,0.-1,0.-7,7.93,11.69,90937.50,903.91,0.0,0.0,0.0
29895,2,29895,46,0.28,9.73,0.19,0.5,0.6,0.-18,7.93,11.68,90927.68,903.51,0.0,0.0,0.0
29941,2,29941,46,0.18,10.9,0.71,0.0,0.11,0.-22,8.0,11.69,90936.35,903.22,0.0,0.0,0.0
29993,2,29993,52,0.37,9.83,0.12,0.5,0.-10,0.0,8.0,11.69,90939.69,903.61,0.0,0.0,0.0
30042,2,30042,49,0.44,10.43,0.74,0.2,0.-22,0.-2,8.0,11.69,90942.93,903.61,0.0,0.0,0.0
30088,2,30088,46,0.-2,9.81,0.30,0.4,0.0,0.-28,7.93,11.69,90941.89,903.21,0.0,0.0,0.0
30134,2,30134,46,0.-27,9.75,0.16,0.4,0.5,0.-22,7.93,11.69,90932.7,902.91,0.0,0.0,0.0
30180,2,30180,46,0.22,10.19,0.78,0.4,0.-13,0.9,8.0,11.69,90931.97,903.42,0.0,0.0,0.0
30226,2,30226,46,0.23,9.87,0.0,0.8,0.-21,0.11,7.93,11.69,90931.97,903.2,0.0,0.0,0.0
30272,2,30272,46,0.54,10.64,0.63,0.5,0.-16,0.-7,7.93,11.70,90936.35,903.3,0.0,0.0,0.0
30315,2,30315,43,0.11,9.69,0.43,0.17,0.-13,0.-17,7.93,11.69,90937.50,903.22,0.0,0.0,0.0
30361,2,30361,46,0.-5,9.78,0.-3,0.10,0.-10,0.-9,7.93,11.70,90931.97,903.12,0.0,0.0,0.0
30407,2,30407,46,0.21,9.90,1.20,0.-2,0.-14,0.5,7.93,11.70,90934.16,903.52,0.0,0.0,0.0
30453,2,30453,46,0.37,9.94,0.43,0.-5,0.-4,0.-13,7.93,11.69,90940.64,903.31,0.0,0.0,0.0
30504,2,30504,51,0.56,10.60,0.38,0.6,0.-2,0.-25,7.93,11.69,90933.11,902.92,0.0,0.0,0.0
30550,2,30550,46,0.-29,10.1,0.40,0.22,0.-16,0.-14,7.93,11.69,90928.73,903.21,0.0,0.0,0.0
30593,2,30593,43,0.1,9.39,0.-36,0.11,0.-8,0.-9,7.93,11.69,90933.11,902.91,0.0,0.0,0.0
30639,2,30639,46,0.-45,10.24,0.96,0.-28,0.-28,0.13,7.93,11.69,90938.55,903.51,0.0,0.0,0.0
30686,2,30686,47,1.3,10.60,1.26,0.7,0.-5,0.-9,8.0,11.69,90941.78,903.61,0.0,0.0,0.0
30732,2,30732,46,0.26,9.53,0.8,0.6,0.-6,0.-40,8.0,11.69,90941.78,903.71,0.0,0.0,0.0
30778,2,30778,46,0.-24,9.93,0.-6,0.-1,0.-2,0.-44,8.0,11.69,90934.16,903.81,0.0,0.0,0.0
30824,2,30824,46,0.-4,9.96,0.41,0.-6,0.-15,0.-4,7.93,11.69,90934.16,903.1,0.0,0.0,0.0
30867,2,30867,43,0.-34,9.88,1.0,0.8,0.-15,0.15,7.93,11.69,90934.16,903.22,0.0,0.0,0.0
30913,2,30913,46,0.31,10.4,0.2,0.-9,0.-2,0.6,7.93,11.69,90940.64,903.71,0.0,0.0,0.0
30959,2,30959,46,0.24,10.21,1.54,0.-4,0.-15,0.1,7.93,11.69,90933.2,903.2,0.0,0.0,0.0
31010,2,31010,51,0.50,10.6,0.66,0.2,0.-2,0.-29,8.0,11.69,90940.74,903.32,0.0,0.0,0.0
31056,2,31056,46,0.-51,10.14,0.32,0.-23,0.-3,0.-28,7.93,11.70,90935.31,903.32,0.0,0.0,0.0
31102,2,31102,46,0.27,10.26,0.96,0.8,0.-19,0.2,7.93,11.69,90938.55,903.11,0.0,0.0,0.0
31145,2,31145,43,0.42,9.70,0.24,0.4,0.-15,0.1,8.0,11.69,90937.40,903.31,0.0,0.0,0.0
31191,2,31191,46,0.-3,10.1,1.12,0.7,0.-20,0.-4,8.0,11.69,90932.7,903.72,0.0,0.0,0.0
31237,2,31237,46,0.27,10.7,0.63,0.7,0.-12,0.-6,8.0,11.70,90935.21,903.61,0.0,0.0,0.0
31283,2,31283,46,0.22,9.59,0.94,0.3,0.-19,0.-2,7.93,11.70,90933.2,903.3,0.0,0.0,0.0
31329,2,31329,46,0.14,10.33,0.74,0.1,0.-11,0.-9,8.0,11.70,90930.82,903.3,0.0,0.0,0.0
31375,2,31375,46,0.30,9.66,0.34,0.7,0.-12,0.-9,8.0,11.70,90935.21,903.92,0.0,0.0,0.0
31419,2,31419,44,0.20,10.15,0.89,0.0,0.-17,0.-4,8.0,11.69,90939.60,903.3,0.0,0.0,0.0
31465,2,31465,46,0.2,9.99,1.8,0.6,0.-8,0.-13,8.0,11.69,90932.92,903.32,0.0,0.0,0.0
31527,2,31527,62,0.8,10.6,0.74,0.-1,0.-9,0.-8,8.0,11.68,90933.11,903.91,0.0,0.0,0.0
31573,2,31573,46,0.52,10.23,0.67,0.0,0.-6,0.-9,8.0,11.69,90937.50,904.12,0.0,0.0,0.0
31619,2,31619,46,0.17,9.96,0.68,0.1,0.-10,0.-9,8.0,11.69,90937.40,903.42,0.0,0.0,0.0
31665,2,31665,46,0.-12,9.96,0.82,0.3,0.-10,0.-10,7.93,11.69,90925.49,903.91,0.0,0.0,0.0
31708,2,31708,43,0.69,10.15,0.92,0.2,0.1,0.-6,8.0,11.69,90935.21,903.32,0.0,0.0,0.0
31754,2,31754,46,0.7,9.85,0.85,0.1,0.-4,0.-12,8.0,11.70,90929.68,903.43,0.0,0.0,0.0
31800,2,31800,46,0.29,9.82,0.33,0.0,0.-5,0.-12,8.6,11.69,90939.50,903.3,0.0,0.0,0.0
31846,2,31846,46,0.40,10.34,1.22,0.2,0.-11,0.-12,8.0,11.70,90931.78,903.33,0.0,0.0,0.0
31892,2,31892,46,0.34,9.68,0.15,0.21,0.-17,0.-6,8.0,11.70,90937.31,903.52,0.0,0.0,0.0
31938,2,31938,46,0.34,10.1,1.21,0.3,0.-8,0.-9,8.0,11.70,90939.60,903.42,0.0,0.0,0.0
31981,2,31981,43,0.13,9.95,0.69,0.7,0.-6,0.-9,8.0,11.70,90933.2,902.63,0.0,0.0,0.0
32046,2,32046,65,0.2,10.4,0.82,0.0,0.-11,0.-9,8.0,11.68,90938.55,903.91,0.0,0.0,0.0
32092,2,32092,46,0.36,10.10,0.75,0.4,0.-15,0.-12,8.0,11.69,90937.40,903.22,0.0,0.0,0.0
32138,2,32138,46,0.12,9.90,0.85,0.5,0.-12,0.-11,8.0,11.70,90933.11,903.61,0.0,0.0,0.0
32184,2,32184,46,0.-14,9.87,0.55,0.5,0.-13,0.-7,8.0,11.70,90931.88,903.22,0.0,0.0,0.0
32230,2,32230,46,0.47,10.18,1.2,0.3,0.-7,0.-6,7.93,11.70,90940.64,903.61,0.0,0.0,0.0
32273,2,32273,43,0.6,9.93,0.75,0.6,0.-11,0.-11,8.0,11.69,90931.97,903.53,0.0,0.0,0.0
32319,2,32319,46,0.10,10.4,0.76,0.5,0.-14,0.-10,8.0,11.70,90938.45,903.33,0.0,0.0,0.0
32365,2,32365,46,0.43,9.78,0.87,0.6,0.-11,0.-7,7.93,11.71,90931.88,903.42,0.0,0.0,0.0
32411,2,32411,46,0.37,10.15,0.54,0.0,0.-8,0.-8,8.0,11.71,90937.21,903.43,0.0,0.0,0.0
32457,2,32457,46,0.-23,9.93,1.29,0.3,0.-16,0.-13,8.0,11.71,90929.59,903.13,0.0,0.0,0.0
32503,2,32503,46,0.19,9.89,0.46,0.8,0.-8,0.-7,8.6,11.70,90934.7,902.83,0.0,0.0,0.0
32551,2,32551,48,0.84,10.4,0.95,0.1,0.-13,0.-11,8.0,11.70,90938.45,903.33,0.0,0.0,0.0
32597,2,32597,46,0.-25,9.85,1.0,0.10,0.-11,0.-9,8.0,11.70,90932.92,903.52,0.0,0.0,0.0
32643,2,32643,46,0.67,9.96,0.46,0.3,0.-10,0.-8,8.0,11.71,90938.45,903.53,0.0,0.0,0.0
32689,2,32689,46,0.20,9.96,1.0,0.5,0.-15,0.-16,8.0,11.71,90938.45,903.83,0.0,0.0,0.0
32736,2,32736,47,0.2,9.85,0.68,0.3,0.-9,0.-8,8.0,11.70,90933.97,902.94,0.0,0.0,0.0
32782,2,32782,46,0.20,10.15,1.15,0.7,0.-12,0.-11,8.0,11.70,90934.7,903.42,0.0,0.0,0.0
32825,2,32825,43,0.34,9.97,0.37,0.4,0.-8,0.-8,8.0,11.70,90936.17,903.93,0.0,0.0,0.0
32871,2,32871,46,0.27,10.10,0.95,0.2,0.-13,0.-11,8.0,11.71,90932.92,903.53,0.0,0.0,0.0
32917,2,32917,46,0.4,9.95,0.86,0.4,0.-9,0.-9,7.93,11.71,90937.21,902.94,0.0,0.0,0.0
32963,2,32963,46,0.26,9.86,0.86,0.5,0.-8,0.-8,8.0,11.71,90937.12,903.34,0.0,0.0,0.0
33009,2,33009,46,0.29,10.4,0.74,0.4,0.-8,0.-8,8.0,11.71,90929.59,903.64,0.0,0.0,0.0
33060,2,33060,51,0.7,10.4,0.87,0.5,0.-10,0.-10,8.6,11.70,90936.26,903.62,0.0,0.0,0.0
33103,2,33103,43,0.19,9.99,0.79,0.3,0.-9,0.-9,8.0,11.70,90926.35,903.53,0.0,0.0,0.0
33149,2,33149,46,0.34,10.1,0.78,0.2,0.-9,0.-8,8.6,11.71,90936.17,903.53,0.0,0.0,0.0
33195,2,33195,46,0.1,9.98,0.78,0.5,0.-13,0.-10,8.6,11.71,90936.17,903.14,0.0,0.0,0.0
33241,2,33241,46,0.46,10.3,0.93,0.2,0.-11,0.-9,8.0,11.71,90935.2,902.55,0.0,0.0,0.0
33287,2,33287,46,0.-9,9.95,0.87,0.4,0.-9,0.-9,8.0,11.72,90933.97,903.53,0.0,0.0,0.0
33333,2,33333,46,0.14,9.97,0.82,0.3,0.-10,0.-9,8.0,11.72,90938.35,903.13,0.0,0.0,0.0
33376,2,33376,43,0.12,10.9,1.9,0.4,0.-10,0.-9,8.0,11.71,90933.97,903.22,0.0,0.0,0.0
33422,2,33422,46,0.17,9.93,0.60,0.6,0.-7,0.-8,8.0,11.71,90929.59,903.43,0.0,0.0,0.0
33468,2,33468,46,0.36,10.7,0.74,0.3,0.-9,0.-9,8.0,11.71,90930.64,903.64,0.0,0.0,0.0
33514,2,33514,46,0.5,9.94,0.81,0.5,0.-10,0.-10,8.0,11.70,90927.39,902.95,0.0,0.0,0.0
33565,2,33565,51,0.29,10.4,0.84,0.3,0.-9,0.-10,8.6,11.71,90928.44,902.94,0.0,0.0,0.0
33611,2,33611,46,0.22,9.99,0.84,0.5,0.-6,0.-8,8.6,11.71,90940.55,903.62,0.0,0.0,0.0
33655,2,33655,44,0.15,10.4,0.86,0.4,0.-8,0.-9,8.0,11.71,90935.2,903.74,0.0,0.0,0.0
33701,2,33701,46,0.36,10.0,0.78,0.5,0.-8,0.-9,8.6,11.72,90932.83,903.54,0.0,0.0,0.0
33748,2,33748,47,0.11,9.99,0.89,0.4,0.-9,0.-9,8.6,11.72,90940.46,904.33,0.0,0.0,0.0
33794,2,33794,46,0.22,10.0,0.87,0.4,0.-8,0.-8,8.6,11.71,90927.39,903.4,0.0,0.0,0.0
33840,2,33840,46,0.10,9.94,0.70,0.4,0.-9,0.-8,8.6,11.72,90937.12,903.14,0.0,0.0,0.0
33886,2,33886,46,0.19,10.2,0.95,0.3,0.-10,0.-9,8.0,11.72,90936.17,903.24,0.0,0.0,0.0
33929,2,33929,43,0.31,10.0,0.81,0.5,0.-9,0.-8,8.0,11.71,90935.2,903.34,0.0,0.0,0.0
33975,2,33975,46,0.19,9.98,0.76,0.4,0.-7,0.-9,8.0,11.72,90934.92,903.43,0.0,0.0,0.0
34021,2,34021,46,0.13,10.1,0.95,0.2,0.-4,0.-9,8.6,11.73,90930.54,903.64,0.0,0.0,0.0
34083,2,34083,62,0.1,9.87,0.63,0.-7,0.-13,0.-11,8.0,11.71,90937.31,903.22,0.0,0.0,0.0
34129,2,34129,46,0.95,10.18,0.25,0.-2,0.-30,0.-10,8.6,11.71,90927.39,903.44,0.0,0.0,0.0
34175,2,34175,46,0.-37,10.40,1.83,0.0,0.-27,0.-22,8.6,11.71,90931.78,903.53,0.0,0.0,0.0
34218,2,34218,43,0.-29,9.61,1.0,0.18,0.-11,0.-14,8.0,11.72,90940.46,903.34,0.0,0.0,0.0
34264,2,34264,46,0.-7,9.85,1.3,0.3,0.-1,0.-5,8.6,11.72,90936.17,903.24,0.0,0.0,0.0
34310,2,34310,46,0.8,9.92,0.72,0.7,0.1,0.-3,8.6,11.71,90933.78,903.44,0.0,0.0,0.0
34356,2,34356,46,0.34,10.17,0.94,0.4,0.-5,0.-5,8.12,11.72,90931.68,903.84,0.0,0.0,0.0
34402,2,34402,46,0.29,9.96,0.83,0.3,0.-10,0.-10,8.6,11.72,90930.64,903.74,0.0,0.0,0.0
34451,2,34451,49,0.4,9.61,0.69,0.0,0.-16,0.-7,8.12,11.72,90931.68,903.55,0.0,0.0,0.0
34497,2,34497,46,0.37,10.52,1.74,0.0,0.-11,0.-9,8.6,11.72,90931.68,903.44,0.0,0.0,0.0
34543,2,34543,46,0.-12,10.0,0.89,0.5,0.-8,0.-11,8.6,11.73,90932.73,903.35,0.0,0.0,0.0
34595,2,34595,52,0.27,10.0,1.14,0.3,0.-3,0.-8,8.0,11.72,90930.64,903.4,0.0,0.0,0.0
34641,2,34641,46,0.15,9.89,0.59,0.5,0.0,0.-6,8.0,11.72,90936.7,903.64,0.0,0.0,0.0
34687,2,34687,46,0.36,9.98,1.5,0.3,0.-4,0.-7,8.6,11.72,90930.54,903.24,0.0,0.0,0.0
34736,2,34736,49,0.8,10.1,1.6,0.6,0.-6,0.-7,8.0,11.72,90937.12,903.35,0.0,0.0,0.0
34783,2,34783,47,0.12,9.82,0.79,0.8,0.-8,0.-9,8.6,11.73,90932.73,903.74,0.0,0.0,0.0
34829,2,34829,46,0.44,10.23,0.89,0.-3,0.-1,0.-6,8.6,11.72,90939.21,903.74,0.0,0.0,0.0
34875,2,34875,46,0.10,9.92,0.92,0.2,0.-8,0.-11,8.6,11.72,90931.59,903.85,0.0,0.0,0.0
34921,2,34921,46,0.26,9.99,0.84,0.3,0.-9,0.-9,8.6,11.73,90937.12,903.45,0.0,0.0,0.0
34967,2,34967,46,0.5,9.93,1.15,0.4,0.-14,0.-10,8.6,11.73,90937.2,903.94,0.0,0.0,0.0
35016,2,35016,49,0.-6,9.90,1.47,0.10,0.-11,0.-8,8.6,11.72,90926.16,902.95,0.0,0.0,0.0
35062,2,35062,46,0.36,10.10,0.38,0.12,0.-7,0.-7,8.6,11.72,90935.97,903.55,0.0,0.0,0.0
35114,2,35114,52,0.14,10.49,1.27,0.0,0.-9,0.-17,8.6,11.73,90935.97,903.64,0.0,0.0,0.0
35160,2,35160,46,0.-7,9.35,1.0,0.18,0.6,0.-7,8.6,11.74,90942.55,902.95,0.0,0.0,0.0
35206,2,35206,46,0.32,10.0,0.44,0.-19,0.8,0.-3,8.6,11.73,90935.97,903.25,0.0,0.0,0.0
35252,2,35252,46,0.44,10.49,1.51,0.-7,0.0,0.-9,8.0,11.73,90932.64,903.15,0.0,0.0,0.0
35301,2,35301,49,0.43,10.12,0.44,0.13,0.-5,0.-13,8.12,11.73,90931.59,903.55,0.0,0.0,0.0
35347,2,35347,46,0.23,10.12,1.32,0.15,0.-18,0.-7,8.12,11.73,90933.78,903.16,0.0,0.0,0.0
35393,2,35393,46,0.-5,9.60,0.98,0.14,0.-24,0.-11,8.12,11.74,90930.44,904.5,0.0,0.0,0.0
35439,2,35439,46,0.-9,9.68,1.9,0.2,0.-14,0.-4,8.6,11.73,90933.78,903.55,0.0,0.0,0.0
35485,2,35485,46,0.39,10.26,0.82,0.-2,0.-5,0.-4,8.12,11.74,90938.7,903.45,0.0,0.0,0.0
35531,2,35531,46,0.47,10.16,0.87,0.9,0.-5,0.-9,8.12,11.73,90934.92,902.77,0.0,0.0,0.0
35574,2,35574,43,0.15,9.72,0.77,0.8,0.-10,0.-9,8.6,11.74,90928.25,903.36,0.0,0.0,0.0
35625,2,35625,51,0.11,9.88,0.82,0.4,0.-5,0.-7,8.18,11.74,90929.39,902.57,0.0,0.0,0.0
35671,2,35671,46,0.41,10.13,0.99,0.-7,0.-4,0.-6,8.12,11.74,90937.2,903.35,0.0,0.0,0.0
35717,2,35717,46,0.27,10.7,1.15,0.2,0.-6,0.-8,8.12,11.75,90933.68,903.6,0.0,0.0,0.0
35763,2,35763,46,0.44,9.93,0.72,0.-4,0.-7,0.-9,8.12,11.73,90933.78,903.36,0.0,0.0,0.0
35810,2,35810,47,0.33,10.5,1.21,0.31,0.-18,0.-11,8.12,11.74,90934.83,903.94,0.0,0.0,0.0
35856,2,35856,46,0.27,9.80,0.94,0.9,0.-14,0.-9,8.6,11.74,90938.7,903.66,0.0,0.0,0.0
35902,2,35902,46,0.4,10.1,1.13,0.7,0.-8,0.-8,8.6,11.74,90932.64,903.35,0.0,0.0,0.0
35948,2,35948,46,0.22,9.96,0.59,0.7,0.-6,0.-8,8.6,11.74,90938.7,903.65,0.0,0.0,0.0
35994,2,35994,46,0.64,10.12,1.8,0.2,0.-14,0.-9,8.12,11.74,90932.64,903.46,0.0,0.0,0.0
36040,2,36040,46,0.42,9.83,0.87,0.16,0.-12,0.-8,8.12,11.74,90932.64,903.35,0.0,0.0,0.0
36086,2,36086,46,0.18,9.82,0.90,0.4,0.-12,0.-10,8.6,11.74,90942.35,902.58,0.0,0.0,0.0
36143,2,36143,57,0.3,9.87,1.10,0.9,0.-9,0.-8,8.6,11.73,90931.59,903.85,0.0,0.0,0.0
36189,2,36189,46,0.57,9.87,0.66,0.3,0.-12,0.-8,8.12,11.73,90939.21,903.26,0.0,0.0,0.0
36235,2,36235,46,0.27,9.98,0.99,0.1,0.-10,0.-10,8.12,11.74,90931.50,903.85,0.0,0.0,0.0
36281,2,36281,46,0.60,10.17,0.79,0.-1,0.-14,0.-9,8.12,11.74,90931.50,903.35,0.0,0.0,0.0
36327,2,36327,46,0.-12,9.94,1.36,0.0,0.-16,0.-12,8.12,11.74,90928.16,903.46,0.0,0.0,0.0
36373,2,36373,46,0.18,9.93,0.92,0.4,0.-6,0.-8,8.6,11.74,90933.68,903.75,0.0,0.0,0.0
36416,2,36416,43,0.43,9.98,0.97,0.3,0.-11,0.-10,8.6,11.73,90930.44,903.74,0.0,0.0,0.0
36462,2,36462,46,0.34,9.97,1.5,0.3,0.-10,0.-9,8.6,11.74,90935.78,904.16,0.0,0.0,0.0
36508,2,36508,46,0.13,9.87,1.11,0.3,0.-12,0.-10,8.12,11.75,90935.88,903.26,0.0,0.0,0.0
36554,2,36554,46,0.25,9.95,0.91,0.5,0.-6,0.-9,8.18,11.75,90933.68,903.76,0.0,0.0,0.0
36600,2,36600,46,0.37,10.3,0.78,0.3,0.-6,0.-9,8.18,11.74,90933.68,903.66,0.0,0.0,0.0
36652,2,36652,52,0.13,9.89,1.11,0.3,0.-9,0.-10,8.12,11.73,90931.59,903.76,0.0,0.0,0.0
36695,2,36695,43,0.14,9.93,1.12,0.6,0.-5,0.-8,8.6,11.74,90930.54,902.96,0.0,0.0,0.0
36741,2,36741,46,0.35,9.98,0.90,0.5,0.-7,0.-7,8.18,11.74,90933.68,903.66,0.0,0.0,0.0
36787,2,36787,46,0.13,9.95,1.8,0.6,0.-8,0.-9,8.18,11.75,90937.97,903.36,0.0,0.0,0.0
36834,2,36834,47,0.45,9.98,0.89,0.5,0.-4,0.-6,8.12,11.75,90937.97,903.86,0.0,0.0,0.0
36880,2,36880,46,0.13,10.3,0.94,0.7,0.-6,0.-10,8.12,11.75,90941.31,903.86,0.0,0.0,0.0
36926,2,36926,46,0.31,10.1,0.90,0.7,0.-4,0.-8,8.18,11.74,90932.64,903.26,0.0,0.0,0.0
36969,2,36969,43,0.30,9.91,0.83,0.5,0.-6,0.-9,8.12,11.74,90933.59,903.6,0.0,0.0,0.0
37015,2,37015,46,0.28,9.95,1.0,0.5,0.-6,0.-9,8.12,11.74,90933.68,903.67,0.0,0.0,0.0
37061,2,37061,46,0.27,10.0,0.97,0.4,0.-10,0.-10,8.12,11.75,90936.92,902.96,0.0,0.0,0.0
37107,2,37107,46,0.18,9.92,0.84,0.6,0.-9,0.-9,8.18,11.75,90935.88,903.6,0.0,0.0,0.0
37158,2,37158,51,0.28,10.2,0.86,0.4,0.-10,0.-9,8.18,11.75,90932.54,903.27,0.0,0.0,0.0
37204,2,37204,46,0.27,10.7,1.4,0.8,0.-7,0.-8,8.18,11.74,90927.10,903.35,0.0,0.0,0.0
37247,2,37247,43,0.26,10.0,0.85,0.8,0.-10,0.-9,8.12,11.75,90931.50,903.16,0.0,0.0,0.0
37293,2,37293,46,0.15,10.0,0.97,0.4,0.-10,0.-8,8.12,11.75,90931.50,903.87,0.0,0.0,0.0
37339,2,37339,46,0.35,9.94,0.84,0.9,0.-7,0.-8,8.12,11.76,90931.50,902.97,0.0,0.0,0.0
37385,2,37385,46,0.40,10.0,0.78,0.5,0.-8,0.-8,8.12,11.75,90929.30,903.76,0.0,0.0,0.0
37431,2,37431,46,0.24,9.94,0.85,0.5,0.-9,0.-8,8.12,11.74,90929.30,903.76,0.0,0.0,0.0
37477,2,37477,46,0.24,10.1,0.82,0.7,0.-9,0.-8,8.18,11.74,90938.7,903.66,0.0,0.0,0.0
37520,2,37520,43,0.31,9.94,0.97,0.5,0.-6,0.-7,8.12,11.76,90931.50,903.67,0.0,0.0,0.0
37566,2,37566,46,0.35,9.92,0.64,0.7,0.-8,0.-8,8.12,11.75,90931.39,902.77,0.0,0.0,0.0
37612,2,37612,46,0.44,10.3,0.76,0.4,0.-9,0.-8,8.25,11.74,90933.59,903.67,0.0,0.0,0.0
37663,2,37663,51,0.40,9.98,0.87,0.4,0.-9,0.-9,8.12,11.75,90936.92,903.76,0.0,0.0,0.0
37709,2,37709,46,0.39,10.4,0.76,0.5,0.-10,0.-9,8.18,11.75,90932.54,903.67,0.0,0.0,0.0
37755,2,37755,46,0.31,9.95,0.84,0.3,0.-10,0.-9,8.12,11.76,90941.21,903.27,0.0,0.0,0.0
37798,2,37798,43,0.43,9.99,0.74,0.4,0.-10,0.-10,8.18,11.74,90936.83,903.76,0.0,0.0,0.0
37845,2,37845,47,0.29,9.97,1.0,0.2,0.-11,0.-10,8.12,11.75,90932.45,903.77,0.0,0.0,0.0
37891,2,37891,46,0.16,9.96,1.4,0.5,0.-9,0.-9,8.18,11.75,90932.54,903.7,0.0,0.0,0.0
37937,2,37937,46,0.38,10.1,0.67,0.6,0.-6,0.-7,8.18,11.75,90937.88,904.26,0.0,0.0,0.0
37983,2,37983,46,0.64,9.86,0.92,0.4,0.-9,0.-8,8.18,11.76,90930.25,902.78,0.0,0.0,0.0
38029,2,38029,46,0.28,9.91,0.80,0.4,0.-12,0.-10,8.12,11.75,90931.39,902.96,0.0,0.0,0.0
38074,2,38074,45,0.26,9.98,0.99,0.2,0.-11,0.-10,8.12,11.75,90932.35,903.8,0.0,0.0,0.0
38120,2,38120,46,0.20,9.98,0.89,0.5,0.-10,0.-9,8.12,11.75,90931.39,903.7,0.0,0.0,0.0
38182,2,38182,62,0.28,9.99,0.74,0.5,0.-9,0.-9,8.12,11.74,90937.97,903.75,0.0,0.0,0.0
38228,2,38228,46,0.35,9.98,0.76,0.4,0.-10,0.-9,8.12,11.76,90932.54,903.27,0.0,0.0,0.0
38274,2,38274,46,0.25,10.3,0.89,0.4,0.-12,0.-10,8.18,11.75,90931.39,904.7,0.0,0.0,0.0
38320,2,38320,46,0.31,9.95,0.83,0.5,0.-10,0.-9,8.6,11.74,90933.68,904.16,0.0,0.0,0.0
38363,2,38363,43,0.27,10.6,0.68,0.4,0.-10,0.-9,8.12,11.76,90935.78,902.97,0.0,0.0,0.0
38409,2,38409,46,0.30,10.4,1.2,0.3,0.-10,0.-9,8.18,11.75,90928.16,903.67,0.0,0.0,0.0
38455,2,38455,46,0.29,9.99,0.88,0.5,0.-8,0.-9,8.12,11.75,90933.50,903.47,0.0,0.0,0.0
38501,2,38501,46,0.33,10.2,0.72,0.4,0.-10,0.-9,8.12,11.76,90935.68,903.28,0.0,0.0,0.0
38547,2,38547,46,0.11,10.5,0.87,0.4,0.-10,0.-10,8.25,11.76,90927.96,903.28,0.0,0.0,0.0
38596,2,38596,49,0.34,9.96,0.83,0.6,0.-8,0.-8,8.12,11.76,90935.68,903.78,0.0,0.0,0.0
38642,2,38642,46,0.41,9.94,0.74,0.3,0.-10,0.-8,8.12,11.76,90931.30,903.48,0.0,0.0,0.0
38694,2,38694,52,0.31,9.93,0.94,0.5,0.-10,0.-10,8.18,11.76,90926.92,903.8,0.0,0.0,0.0
38740,2,38740,46,0.37,10.0,0.79,0.4,0.-9,0.-9,8.12,11.75,90936.83,903.28,0.0,0.0,0.0
38786,2,38786,46,0.37,9.99,0.77,0.4,0.-9,0.-9,8.12,11.76,90932.35,903.68,0.0,0.0,0.0
38832,2,38832,46,0.30,9.95,0.83,0.5,0.-9,0.-9,8.18,11.76,90930.16,903.88,0.0,0.0,0.0
38882,2,38882,50,0.37,9.96,0.83,0.4,0.-10,0.-10,8.12,11.76,90932.35,903.38,0.0,0.0,0.0
38928,2,38928,46,0.28,10.3,0.86,0.5,0.-10,0.-9,8.18,11.76,90933.50,903.48,0.0,0.0,0.0
38974,2,38974,46,0.36,9.93,0.72,0.4,0.-10,0.-9,8.18,11.76,90937.88,903.29,0.0,0.0,0.0
39020,2,39020,46,0.31,10.1,0.89,0.4,0.-9,0.-9,8.12,11.76,90932.35,902.79,0.0,0.0,0.0
39066,2,39066,46,0.40,10.0,0.74,0.4,0.-8,0.-9,8.12,11.77,90934.54,903.28,0.0,0.0,0.0
39112,2,39112,46,0.24,10.1,0.77,0.4,0.-10,0.-10,8.12,11.76,90933.50,903.68,0.0,0.0,0.0
39161,2,39161,49,0.32,10.4,0.84,0.4,0.-9,0.-9,8.18,11.76,90937.78,903.68,0.0,0.0,0.0
39212,2,39212,51,0.39,9.94,0.76,0.5,0.-10,0.-9,8.18,11.75,90926.92,903.8,0.0,0.0,0.0
39258,2,39258,46,0.27,9.98,0.84,0.4,0.-10,0.-9,8.12,11.76,90936.73,902.79,0.0,0.0,0.0
39304,2,39304,46,0.32,9.93,0.75,0.4,0.-10,0.-9,8.18,11.76,90932.35,903.68,0.0,0.0,0.0
39350,2,39350,46,0.28,10.4,0.82,0.4,0.-10,0.-9,8.18,11.76,90934.54,903.48,0.0,0.0,0.0
39396,2,39396,46,0.23,10.5,0.97,0.3,0.-10,0.-9,8.18,11.76,90930.16,903.29,0.0,0.0,0.0
39452,2,39452,56,0.36,9.97,0.85,0.5,0.-10,0.-9,8.12,11.76,90942.26,903.57,0.0,0.0,0.0
39498,2,39498,46,0.32,10.1,0.78,0.5,0.-10,0.-9,8.18,11.76,90933.39,903.59,0.0,0.0,0.0
39544,2,39544,46,0.31,9.98,0.80,0.5,0.-8,0.-9,8.18,11.76,90934.45,903.58,0.0,0.0,0.0
39590,2,39590,46,0.40,9.96,0.72,0.5,0.-9,0.-9,8.18,11.76,90933.50,903.38,0.0,0.0,0.0
39636,2,39636,46,0.25,10.0,0.84,0.4,0.-12,0.-10,8.12,11.76,90936.64,903.19,0.0,0.0,0.0
39682,2,39682,46,0.31,9.95,0.89,0.4,0.-8,0.-9,8.12,11.77,90938.74,903.40,0.0,0.0,0.0
39737,2,39737,55,0.40,9.93,0.72,0.5,0.-7,0.-9,8.12,11.77,90937.78,903.19,0.0,0.0,0.0
39783,2,39783,46,0.28,10.0,0.78,0.5,0.-9,0.-9,8.18,11.77,90934.45,903.38,0.0,0.0,0.0
39829,2,39829,46,0.28,9.97,0.79,0.4,0.-9,0.-9,8.12,11.77,90937.78,903.59,0.0,0.0,0.0
39875,2,39875,46,0.36,9.97,0.87,0.5,0.-8,0.-9,8.18,11.77,90937.68,903.19,0.0,0.0,0.0
39922,2,39922,47,0.32,9.97,0.74,0.6,0.-12,0.-9,8.25,11.77,90931.21,902.99,0.0,0.0,0.0
39968,2,39968,46,0.35,10.1,0.77,0.4,0.-8,0.-9,8.12,11.77,90931.21,902.98,0.0,0.0,0.0
40011,2,40011,43,0.29,9.98,0.90,0.4,0.-7,0.-8,8.18,11.76,90934.54,903.48,0.0,0.0,0.0
40057,2,40057,46,0.44,10.2,0.73,0.5,0.-9,0.-10,8.18,11.76,90932.25,903.59,0.0,0.0,0.0
40103,2,40103,46,0.26,9.95,0.97,0.4,0.-10,0.-10,8.12,11.76,90932.25,902.89,0.0,0.0,0.0
40149,2,40149,46,0.33,9.99,0.73,0.5,0.-8,0.-8,8.18,11.77,90935.59,902.99,0.0,0.0,0.0
40195,2,40195,46,0.25,9.97,0.83,0.3,0.-11,0.-10,8.18,11.78,90925.67,903.40,0.0,0.0,0.0
40247,2,40247,52,0.29,10.1,0.80,0.5,0.-9,0.-9,8.12,11.76,90934.64,903.88,0.0,0.0,0.0
40294,2,40294,47,0.39,10.3,0.78,0.4,0.-9,0.-9,8.18,11.76,90933.50,902.98,0.0,0.0,0.0
40340,2,40340,46,0.25,9.99,0.86,0.4,0.-10,0.-9,8.18,11.77,90929.1,903.79,0.0,0.0,0.0
40386,2,40386,46,0.34,9.98,0.81,0.5,0.-8,0.-8,8.18,11.77,90932.35,903.29,0.0,0.0,0.0
40432,2,40432,46,0.41,9.96,0.70,0.4,0.-8,0.-9,8.12,11.77,90932.25,903.29,0.0,0.0,0.0
40478,2,40478,46,0.34,10.3,0.79,0.4,0.-10,0.-10,8.18,11.77,90938.83,903.19,0.0,0.0,0.0
40524,2,40524,46,0.24,10.3,0.78,0.4,0.-10,0.-9,8.25,11.76,90941.2,904.38,0.0,0.0,0.0
40567,2,40567,43,0.28,10.2,0.84,0.5,0.-7,0.-8,8.18,11.76,90931.21,903.99,0.0,0.0,0.0
40613,2,40613,46,0.29,9.94,0.79,0.5,0.-7,0.-9,8.18,11.78,90936.64,903.49,0.0,0.0,0.0
40659,2,40659,46,0.36,9.95,0.83,0.6,0.-9,0.-8,8.18,11.78,90934.45,903.9,0.0,0.0,0.0
40705,2,40705,46,0.36,9.95,0.68,0.5,0.-9,0.-9,8.18,11.78,90937.68,903.79,0.0,0.0,0.0
40765,2,40765,60,0.35,9.98,0.84,0.4,0.-11,0.-9,8.18,11.76,90931.21,903.48,0.0,0.0,0.0
40811,2,40811,46,0.33,9.97,0.77,0.4,0.-12,0.-10,8.18,11.76,90931.21,903.48,0.0,0.0,0.0
40854,2,40854,43,0.32,9.94,0.86,0.3,0.-10,0.-9,8.25,11.77,90933.39,903.19,0.0,0.0,0.0
40900,2,40900,46,0.32,10.7,0.90,0.4,0.-9,0.-9,8.12,11.77,90933.39,903.19,0.0,0.0,0.0
40947,2,40947,47,0.22,10.0,0.76,0.5,0.-10,0.-10,8.12,11.78,90937.59,903.20,0.0,0.0,0.0
40993,2,40993,46,0.34,10.4,0.82,0.5,0.-7,0.-10,8.18,11.77,90937.59,903.49,0.0,0.0,0.0
41039,2,41039,46,0.32,9.94,0.82,0.4,0.-7,0.-9,8.18,11.77,90933.21,903.80,0.0,0.0,0.0
41085,2,41085,46,0.34,10.4,0.79,0.4,0.-8,0.-9,8.18,11.78,90931.10,903.40,0.0,0.0,0.0
41128,2,41128,43,0.27,9.93,0.84,0.4,0.-10,0.-10,8.12,11.79,90929.96,903.60,0.0,0.0,0.0
41174,2,41174,46,0.32,9.97,0.86,0.4,0.-9,0.-8,8.18,11.78,90936.54,903.39,0.0,0.0,0.0
41220,2,41220,46,0.35,9.99,0.83,0.5,0.-8,0.-9,8.18,11.78,90944.7,903.80,0.0,0.0,0.0
41272,2,41272,52,0.33,9.96,0.70,0.4,0.-11,0.-9,8.18,11.78,90934.35,904.0,0.0,0.0,0.0
41318,2,41318,46,0.27,9.96,0.80,0.4,0.-11,0.-10,8.25,11.77,90932.16,903.50,0.0,0.0,0.0
41364,2,41364,46,0.31,9.97,0.90,0.4,0.-9,0.-9,8.12,11.78,90932.16,903.30,0.0,0.0,0.0
41407,2,41407,43,0.36,10.6,0.84,0.5,0.-8,0.-8,8.18,11.78,90926.63,903.40,0.0,0.0,0.0
41453,2,41453,46,0.28,10.9,0.75,0.5,0.-8,0.-9,8.18,11.79,90932.16,903.21,0.0,0.0,0.0
41499,2,41499,46,0.37,9.98,0.80,0.4,0.-8,0.-8,8.18,11.79,90936.45,903.41,0.0,0.0,0.0
41545,2,41545,46,0.35,9.95,0.77,0.5,0.-9,0.-10,8.18,11.79,90935.39,903.61,0.0,0.0,0.0
41591,2,41591,46,0.31,10.2,0.67,0.5,0.-8,0.-9,8.18,11.79,90937.50,903.61,0.0,0.0,0.0
41637,2,41637,46,0.41,9.99,0.79,0.4,0.-10,0.-9,8.18,11.78,90928.82,903.90,0.0,0.0,0.0
41680,2,41680,43,0.33,10.1,0.76,0.6,0.-11,0.-10,8.18,11.78,90934.35,903.41,0.0,0.0,0.0
41726,2,41726,46,0.39,9.96,0.58,0.4,0.-12,0.-10,8.12,11.79,90934.25,903.1,0.0,0.0,0.0
41777,2,41777,51,0.19,10.5,0.99,0.3,0.-11,0.-10,8.12,11.79,90936.45,903.21,0.0,0.0,0.0
41823,2,41823,46,0.35,9.93,0.58,0.4,0.-9,0.-9,8.18,11.79,90934.35,903.30,0.0,0.0,0.0
41869,2,41869,46,0.29,10.4,0.94,0.3,0.-13,0.-11,8.18,11.79,90936.45,903.41,0.0,0.0,0.0
41918,2,41918,49,0.33,9.94,0.77,0.5,0.-8,0.-8,8.18,11.79,90938.64,903.30,0.0,0.0,0.0
41965,2,41965,47,0.28,9.96,0.70,0.4,0.-9,0.-9,8.18,11.79,90934.35,903.50,0.0,0.0,0.0
42011,2,42011,46,0.25,10.10,0.86,0.5,0.-10,0.-9,8.25,11.79,90929.87,903.70,0.0,0.0,0.0
42057,2,42057,46,0.29,9.97,0.54,0.5,0.-11,0.-9,8.18,11.79,90932.6,903.41,0.0,0.0,0.0
42103,2,42103,46,0.26,10.10,1.0,0.2,0.-12,0.-9,8.25,11.79,90941.88,903.80,0.0,0.0,0.0
42149,2,42149,46,0.33,9.94,0.68,0.5,0.-11,0.-9,8.18,11.79,90929.87,903.80,0.0,0.0,0.0
42198,2,42198,49,0.29,9.97,0.99,0.2,0.-11,0.-9,8.18,11.80,90931.1,903.31,0.0,0.0,0.0
42244,2,42244,46,0.20,10.0,0.99,0.5,0.-7,0.-8,8.18,11.79,90929.77,904.10,0.0,0.0,0.0
42295,2,42295,51,0.30,10.4,0.70,0.4,0.-10,0.-10,8.18,11.79,90934.25,903.31,0.0,0.0,0.0
42341,2,42341,46,0.35,9.68,0.88,0.4,0.-9,0.-9,8.18,11.79,90932.6,903.41,0.0,0.0,0.0
42387,2,42387,46,0.-10,10.15,0.78,0.5,0.-10,0.-10,8.18,11.80,90929.87,903.51,0.0,0.0,0.0
42433,2,42433,46,0.-46,9.88,0.64,0.3,0.-2,0.-8,8.18,11.80,90929.77,903.91,0.0,0.0,0.0
42482,2,42482,49,1.24,10.8,1.12,0.4,0.4,0.-3,8.18,11.80,90931.96,903.2,0.0,0.0,0.0
42528,2,42528,46,0.38,9.95,0.71,0.4,0.-2,0.-6,8.25,11.80,90930.92,903.62,0.0,0.0,0.0
42574,2,42574,46,0.16,10.5,1.1,0.6,0.-5,0.-7,8.18,11.80,90928.63,903.32,0.0,0.0,0.0
42620,2,42620,46,0.36,9.99,0.72,0.8,0.-4,0.-6,8.18,11.81,90934.6,903.71,0.0,0.0,0.0
42666,2,42666,46,0.46,10.6,0.76,0.7,0.-6,0.-9,8.18,11.80,90930.82,903.32,0.0,0.0,0.0
42712,2,42712,46,0.47,9.89,0.73,0.4,0.-8,0.-9,8.25,11.80,90930.92,903.33,0.0,0.0,0.0
42755,2,42755,43,0.27,9.93,0.81,0.4,0.-8,0.-9,8.25,11.82,90931.87,903.42,0.0,0.0,0.0
42817,2,42817,62,0.35,9.96,0.87,0.3,0.-10,0.-10,8.18,11.78,90934.25,903.41,0.0,0.0,0.0
42863,2,42863,46,0.27,9.99,0.71,0.5,0.-8,0.-9,8.18,11.80,90933.10,904.0,0.0,0.0,0.0
42909,2,42909,46,0.25,10.10,0.76,0.1,0.-8,0.-10,8.25,11.79,90934.16,903.52,0.0,0.0,0.0
42955,2,42955,46,0.38,10.0,0.74,0.4,0.-10,0.-9,8.25,11.80,90939.59,903.31,0.0,0.0,0.0
43002,2,43002,47,0.22,9.96,0.85,0.5,0.-11,0.-10,8.18,11.80,90938.45,903.72,0.0,0.0,0.0
43045,2,43045,43,0.15,9.88,0.76,0.4,0.-10,0.-8,8.12,11.80,90933.1,903.2,0.0,0.0,0.0
43091,2,43091,46,0.32,10.7,0.92,0.3,0.-10,0.-8,8.18,11.80,90930.82,903.32,0.0,0.0,0.0
43137,2,43137,46,0.51,9.93,0.71,0.4,0.-11,0.-9,8.18,11.80,90935.21,903.92,0.0,0.0,0.0
43183,2,43183,46,0.41,10.9,0.90,0.4,0.-11,0.-10,8.25,11.80,90930.92,904.2,0.0,0.0,0.0
43229,2,43229,46,0.40,10.0,0.74,0.5,0.-10,0.-8,8.18,11.81,90935.21,903.32,0.0,0.0,0.0
43275,2,43275,46,0.34,10.0,0.76,0.5,0.-11,0.-10,8.18,11.81,90931.96,903.31,0.0,0.0,0.0
43324,2,43324,49,0.44,10.0,0.79,0.5,0.-9,0.-9,8.25,11.80,90927.67,903.51,0.0,0.0,0.0
43370,2,43370,46,0.35,9.96,0.80,0.4,0.-10,0.-9,8.18,11.80,90934.16,903.32,0.0,0.0,0.0
43416,2,43416,46,0.20,10.1,0.86,0.5,0.-8,0.-10,8.18,11.80,90933.1,903.91,0.0,0.0,0.0
43462,2,43462,46,0.33,10.0,0.84,0.6,0.-7,0.-10,8.25,11.80,90935.21,903.72,0.0,0.0,0.0
43508,2,43508,46,0.28,10.0,0.66,0.5,0.-7,0.-9,8.25,11.80,90931.87,903.62,0.0,0.0,0.0
43554,2,43554,46,0.33,10.0,0.80,0.4,0.-9,0.-9,8.25,11.79,90935.30,903.52,0.0,0.0,0.0
43597,2,43597,43,0.35,9.96,0.79,0.5,0.-6,0.-9,8.25,11.80,90936.35,903.32,0.0,0.0,0.0
43643,2,43643,46,0.39,9.92,0.78,0.5,0.-9,0.-9,8.25,11.81,90934.6,903.42,0.0,0.0,0.0
43689,2,43689,46,0.35,9.93,0.72,0.5,0.-9,0.-8,8.25,11.81,90930.82,903.2,0.0,0.0,0.0
1063737,1020048,0.38,10.0,0.1,0.4,0.-8,0.-10,8.81,11.70,90898.90,906.92,-5.-74,5.11,2.66
1063788,2,1063788,51,0.36,9.96,0.-2,0.4,0.-9,0.-9,8.81,11.75,90898.51,906.57,-5.-74,5.11,2.66
1063834,2,1063834,46,0.35,9.98,0.1,0.5,0.-10,0.-10,8.81,11.77,90900.51,906.19,-11.-30,11.52,4.92
1063877,2,1063877,43,0.38,9.97,0.6,0.4,0.-9,0.-10,8.81,11.79,90895.84,906.60,-11.-30,11.52,4.92
1063923,2,1063923,46,0.37,10.3,0.0,0.4,0.-8,0.-9,8.81,11.80,90901.17,906.52,-16.-39,16.98,6.61
1063969,2,1063969,46,0.41,9.98,0.-4,0.4,0.-8,0.-9,8.81,11.82,90900.98,906.73,-16.-39,16.98,6.61
1064015,2,1064015,46,0.40,10.4,0.-2,0.4,0.-10,0.-10,8.75,11.82,90896.59,906.53,-22.-1,23.74,7.61
1064061,3,3,46,0.38,9.97,0.0,0.4,0.-10,0.-9,8.81,11.83,90900.98,906.93,0.0,0.0,0.0
1064100,3,42,39,0.37,9.99,0.10,0.4,0.-8,0.-9,8.81,11.83,90895.54,907.3,-5.-52,4.68,2.51
1064137,3,79,37,0.39,10.1,0.3,0.5,0.-9,0.-9,8.75,11.83,90896.59,907.2,-5.-52,4.68,2.51
1064174,3,116,37,0.39,9.99,0.0,0.4,0.-9,0.-9,8.81,11.83,90899.93,906.82,-10.-76,10.23,4.60
1064211,3,153,37,0.37,10.2,0.3,0.4,0.-9,0.-9,8.81,11.82,90893.45,906.41,-10.-76,10.23,4.60
1064248,3,190,37,0.41,10.2,0.-4,0.4,0.-8,0.-9,8.81,11.83,90907.65,906.12,-15.-82,15.59,6.27
1064290,3,232,42,0.38,9.99,0.-2,0.4,0.-9,0.-9,8.87,11.83,90902.22,906.21,-15.-82,15.59,6.27
1064330,3,272,40,0.34,9.96,0.0,0.5,0.-11,0.-10,8.87,11.82,90896.78,906.71,-21.-67,22.70,7.30
1064367,3,309,37,0.42,10.2,0.11,0.4,0.-9,0.-10,8.81,11.82,90896.78,907.1,-21.-67,22.70,7.30
1064404,3,346,37,0.34,10.1,0.8,0.4,0.-7,0.-10,8.81,11.83,90900.12,906.61,-27.-24,28.26,8.12
1064441,3,383,37,0.42,9.98,0.0,0.5,0.-11,0.-9,8.81,11.82,90904.41,906.12,-27.-24,28.26,8.12
1064478,3,420,37,0.42,10.2,0.9,0.4,0.-10,0.-9,8.81,11.82,90900.3,907.1,-33.-5,34.70,7.71
1064518,3,460,40,0.40,10.0,0.0,0.4,0.-6,0.-9,8.81,11.82,90904.41,906.41,-33.-5,34.70,7.71
1064555,3,497,37,0.41,10.3,0.-7,0.5,0.-11,0.-9,8.75,11.82,90898.98,906.32,-39.-66,41.75,6.24
1064592,3,534,37,0.44,9.99,0.12,0.4,0.-9,0.-9,8.81,11.82,90897.83,906.72,-39.-66,41.75,6.24
1064629,3,571,37,0.40,10.0,0.-5,0.4,0.-10,0.-9,8.81,11.82,90898.98,906.82,-47.-12,47.99,3.62
1064666,3,608,37,0.43,9.99,0.1,0.4,0.-9,0.-9,8.81,11.81,90901.17,907.1,-47.-12,47.99,3.62
1064703,3,645,37,0.36,10.2,0.11,0.4,0.-7,0.-10,8.87,11.82,90891.35,906.52,-55.-3,52.90,0.92
1064743,3,685,40,0.38,10.3,0.-1,0.4,0.-10,0.-9,8.81,11.82,90901.7,907.1,-55.-3,52.90,0.92
1064779,3,721,36,0.34,9.96,0.11,0.4,0.-8,0.-9,8.81,11.82,90897.74,906.62,-64.-47,57.78,-3.-93
1064830,3,772,51,0.42,9.95,0.10,0.4,0.-10,0.-9,8.81,11.82,90903.36,906.91,-64.-47,57.78,-3.-93
1064867,3,809,37,0.44,10.2,0.-2,0.4,0.-9,0.-9,8.75,11.82,90894.60,906.41,-77.-24,62.36,-12.-4
1064904,3,846,37,0.38,10.0,0.-2,0.5,0.-11,0.-10,8.81,11.82,90895.74,906.52,-77.-24,62.36,-12.-4
1064943,3,885,39,0.40,9.98,0.7,0.4,0.-9,0.-10,8.81,11.82,90897.83,906.61,-93.-6,65.85,-22.-93
1064980,3,922,37,0.43,10.2,0.-7,0.4,0.-7,0.-9,8.81,11.81,90898.98,906.82,-93.-6,65.85,-22.-93
1065017,3,959,37,0.38,10.1,0.4,0.4,0.-10,0.-9,8.81,11.82,90894.50,906.72,-113.-40,67.48,-38.-82
1065054,3,996,37,0.35,9.97,0.10,0.4,0.-5,0.-9,8.81,11.83,90898.88,906.73,-113.-40,67.48,-38.-82
1065091,3,1033,37,0.35,10.4,0.-10,0.4,0.-10,0.-9,8.75,11.82,90891.25,906.72,-134.-15,66.86,-55.-17
1065130,3,1072,39,0.39,9.98,0.7,0.4,0.-12,0.-9,8.81,11.83,90902.22,906.72,-134.-15,66.86,-55.-17
1065167,3,1109,37,0.32,9.96,0.12,0.4,0.-8,0.-9,8.87,11.82,90899.93,906.22,-152.-13,64.24,-68.-54
1065204,3,1146,37,0.41,10.0,0.-4,0.5,0.-13,0.-9,8.81,11.82,90894.50,906.42,-152.-13,64.24,-68.-54
1065241,3,1183,37,0.40,9.98,0.12,0.4,0.-9,0.-9,8.81,11.83,90898.88,906.43,-165.-99,60.20,-78.-5
1065278,3,1220,37,0.40,9.98,0.2,0.4,0.-8,0.-9,8.75,11.83,90897.74,906.53,-165.-99,60.20,-78.-5
1065315,3,1257,37,0.49,10.2,0.-1,0.4,0.-11,0.-9,8.81,11.83,90898.88,906.13,-177.-49,54.44,-85.-12
1065359,3,1301,44,0.36,10.3,0.10,0.4,0.-8,0.-9,8.81,11.83,90898.98,906.92,-177.-49,54.44,-85.-12
1065396,3,1338,37,0.30,10.3,0.2,0.4,0.-8,0.-10,8.81,11.82,90901.7,906.42,172.94,48.52,-89.-72
1065433,3,1375,37,0.42,10.1,0.-1,0.4,0.-11,0.-9,8.81,11.83,90902.3,906.62,172.94,48.52,-89.-72
1065470,3,1412,37,0.29,10.4,0.8,0.4,0.-6,0.-9,8.81,11.82,90898.88,907.2,165.37,44.22,-92.-52
1065507,3,1449,37,0.44,10.2,0.-2,0.4,0.-9,0.-9,8.81,11.82,90903.17,906.73,165.37,44.22,-92.-52
1065540,3,1482,33,0.32,9.99,0.11,0.4,0.-10,0.-9,8.81,11.82,90895.54,906.63,158.96,37.78,-93.-86
1065577,3,1519,37,0.44,10.0,0.4,0.4,0.-7,0.-10,8.75,11.83,90900.98,906.43,158.96,37.78,-93.-86
1065614,3,1556,37,0.41,10.2,0.-4,0.4,0.-10,0.-9,8.87,11.83,90902.12,906.33,153.20,30.83,-94.-22
1065651,3,1593,37,0.41,9.98,0.5,0.4,0.-8,0.-9,8.75,11.83,90894.50,907.3,153.20,30.83,-94.-22
1065688,3,1630,37,0.42,10.0,0.-2,0.4,0.-7,0.-9,8.81,11.83,90892.21,907.3,147.47,25.94,-94.-61
1065727,3,1669,39,0.38,10.1,0.-1,0.4,0.-11,0.-9,8.87,11.83,90892.31,906.53,147.47,25.94,-94.-61
1065765,3,1707,38,0.45,10.4,0.6,0.4,0.-10,0.-10,8.81,11.83,90906.51,907.23,141.77,19.48,-93.-75
1065801,3,1743,36,0.31,10.2,0.7,0.4,0.-8,0.-9,8.81,11.83,90890.11,907.3,141.77,19.48,-93.-75
1065838,3,1780,37,0.42,10.0,0.-2,0.5,0.-11,0.-10,8.81,11.83,90897.74,907.3,136.36,12.55,-91.-99
1065880,3,1822,42,0.36,10.2,0.1,0.4,0.-8,0.-10,8.81,11.83,90895.54,906.73,136.36,12.55,-91.-99
1065917,3,1859,37,0.39,10.3,0.2,0.4,0.-8,0.-9,8.81,11.82,90899.93,906.53,130.94,7.22,-90.-66
1065957,3,1899,40,0.49,10.2,0.0,0.4,0.-9,0.-9,8.81,11.83,90891.16,906.43,130.94,7.22,-90.-66
1065994,3,1936,37,0.35,10.0,0.5,0.4,0.-10,0.-9,8.81,11.83,90899.93,906.63,125.50,1.37,-87.-76
1066031,3,1973,37,0.44,10.4,0.2,0.4,0.-10,0.-9,8.81,11.83,90897.74,906.34,125.50,1.37,-87.-76
1066068,3,2010,37,0.36,10.2,0.1,0.4,0.-9,0.-9,8.87,11.83,90904.32,906.53,119.69,-4.-7,-84.-68
1066105,3,2047,37,0.41,10.0,0.2,0.4,0.-7,0.-9,8.81,11.83,90897.74,906.4,119.69,-4.-7,-84.-68
1066145,3,2087,40,0.38,10.0,0.0,0.4,0.-8,0.-9,8.75,11.83,90889.92,906.63,113.74,-8.-57,-81.-82
1066182,3,2124,37,0.37,10.1,0.0,0.4,0.-10,0.-9,8.75,11.84,90902.3,906.93,113.74,-8.-57,-81.-82
1066219,3,2161,37,0.39,10.2,0.1,0.4,0.-9,0.-9,8.81,11.84,90892.31,907.13,107.25,-13.-24,-77.-82
1066256,3,2198,37,0.31,9.99,0.-3,0.4,0.-11,0.-9,8.81,11.83,90894.40,907.23,107.25,-13.-24,-77.-82
1066293,3,2235,37,0.38,10.2,0.0,0.5,0.-11,0.-9,8.87,11.83,90903.7,907.3,99.93,-17.-82,-72.-25
1066332,3,2274,39,0.39,10.0,0.6,0.4,0.-9,0.-9,8.87,11.83,90895.54,905.84,99.93,-17.-82,-72.-25
1066369,3,2311,37,0.40,10.2,0.-1,0.4,0.-10,0.-9,8.81,11.83,90891.25,907.3,92.46,-21.-23,-66.-43
1066433,3,2375,64,0.41,9.98,0.2,0.4,0.-7,0.-10,8.75,11.83,90900.12,906.81,92.46,-21.-23,-66.-43
1066470,3,2412,37,0.45,9.99,0.1,0.4,0.-10,0.-9,8.75,11.81,90894.60,906.72,84.29,-23.-87,-59.-74
1066507,3,2449,37,0.33,10.4,0.9,0.4,0.-9,0.-10,8.75,11.82,90898.88,906.82,84.29,-23.-87,-59.-74
1066544,3,2486,37,0.34,10.0,0.0,0.5,0.-7,0.-10,8.81,11.82,90893.35,907.22,76.22,-26.-28,-54.-67
1066584,3,2526,40,0.31,10.3,0.5,0.4,0.-9,0.-9,8.81,11.82,90895.54,906.93,76.22,-26.-28,-54.-67
1066621,3,2563,37,0.41,9.98,0.2,0.4,0.-11,0.-9,8.87,11.82,90899.93,906.63,66.92,-27.-18,-46.-66
1066658,3,2600,37,0.42,9.99,0.1,0.4,0.-7,0.-9,8.81,11.83,90906.51,906.62,66.92,-27.-18,-46.-66
1066695,3,2637,37,0.46,9.80,0.1,0.5,0.-10,0.-9,8.81,11.83,90893.35,907.23,57.65,-27.-41,-39.-16
1066732,3,2674,37,0.45,9.97,0.11,0.4,0.-13,0.-9,8.81,11.83,90894.50,906.54,57.65,-27.-41,-39.-16
1066773,3,2715,41,0.35,10.1,0.8,0.4,0.-9,0.-9,8.87,11.82,90898.78,906.43,48.86,-26.-56,-32.-41
1066809,3,2751,36,0.48,10.0,0.1,0.4,0.-7,0.-9,8.87,11.83,90898.88,906.74,48.86,-26.-56,-32.-41
1066846,3,2788,37,0.35,10.2,0.5,0.5,0.-11,0.-10,8.81,11.83,90890.1,907.3,39.43,-24.-14,-24.-86
1066883,3,2825,37,0.40,9.98,0.3,0.5,0.-9,0.-10,8.87,11.84,90894.40,906.64,39.43,-24.-14,-24.-86
1066926,3,2868,43,0.44,10.2,0.-1,0.4,0.-8,0.-9,8.81,11.84,90896.59,907.23,31.54,-22.-9,-19.-32
1066966,3,2908,40,0.29,9.97,0.-1,0.5,0.-10,0.-10,8.81,11.83,90892.31,907.23,31.54,-22.-9,-19.-32
1067003,3,2945,37,0.45,9.99,0.2,0.4,0.-10,0.-10,8.81,11.83,90894.50,906.93,23.62,-18.-57,-13.-65
1067040,3,2982,37,0.41,10.5,0.-4,0.4,0.-9,0.-9,8.81,11.83,90895.54,907.12,23.62,-18.-57,-13.-65
1067077,3,3019,37,0.43,9.99,0.4,0.4,0.-10,0.-9,8.87,11.83,90899.93,906.93,16.60,-14.-6,-8.-82
1067114,3,3056,37,0.43,9.98,0.5,0.4,0.-9,0.-9,8.87,11.83,90902.3,907.24,16.60,-14.-6,-8.-82
1067151,3,3093,37,0.34,10.2,0.3,0.4,0.-9,0.-9,8.81,11.83,90893.25,906.24,10.4,-9.-53,-4.-73
1067190,3,3132,39,0.47,10.1,0.11,0.5,0.-10,0.-10,8.81,11.84,90894.40,907.13,10.4,-9.-53,-4.-73
1067227,3,3169,37,0.30,10.2,0.0,0.5,0.-10,0.-10,8.75,11.84,90894.40,907.13,3.46,-3.-82,0.-75
1067264,3,3206,37,0.46,10.1,0.1,0.5,0.-9,0.-10,8.75,11.82,90899.93,906.93,3.46,-3.-82,0.-75
1067301,3,3243,37,0.33,9.96,0.1,0.5,0.-9,0.-10,8.81,11.83,90897.74,906.93,-2.-47,1.66,2.44
1067338,3,3280,37,0.45,10.4,0.2,0.4,0.-11,0.-9,8.81,11.84,90894.40,907.13,-2.-47,1.66,2.44
1067372,3,3314,34,0.35,10.4,0.1,0.4,0.-10,0.-9,8.75,11.84,90900.98,906.45,-7.-74,7.57,4.57
1067409,3,3351,37,0.45,10.1,0.4,0.4,0.-9,0.-9,8.81,11.83,90901.92,906.74,-7.-74,7.57,4.57
1067451,3,3393,42,0.41,10.0,0.1,0.4,0.-9,0.-9,8.81,11.84,90895.54,907.13,-13.-5,13.54,6.48
1067488,3,3430,37,0.36,10.2,0.4,0.4,0.-10,0.-10,8.81,11.83,90900.98,906.74,-13.-5,13.54,6.48
1067525,3,3467,37,0.42,9.99,0.4,0.4,0.-9,0.-10,8.87,11.83,90898.78,906.4,-18.-53,19.35,8.9
1067562,3,3504,37,0.34,10.0,0.0,0.5,0.-10,0.-10,8.87,11.83,90896.59,907.32,-18.-53,19.35,8.9
1067602,3,3544,40,0.50,10.4,0.4,0.4,0.-10,0.-9,8.87,11.83,90905.36,906.74,-23.-83,25.95,8.90
1067639,3,3581,37,0.31,9.98,0.1,0.4,0.-7,0.-9,8.81,11.83,90895.54,906.84,-23.-83,25.95,8.90
1067676,3,3618,37,0.45,10.4,0.-4,0.4,0.-10,0.-10,8.87,11.84,90902.3,906.63,-29.-57,32.17,9.17
1067713,3,3655,37,0.35,10.1,0.3,0.4,0.-8,0.-9,8.93,11.83,90898.69,906.64,-29.-57,32.17,9.17
1067750,3,3692,37,0.34,9.97,0.-1,0.4,0.-9,0.-9,8.87,11.83,90893.35,906.14,-35.-83,38.24,8.35
1067786,3,3728,36,0.54,10.3,0.2,0.4,0.-10,0.-9,8.81,11.83,90897.64,906.84,-35.-83,38.24,8.35
1067822,3,3764,36,0.27,10.1,0.0,0.4,0.-10,0.-10,8.81,11.83,90903.7,907.24,-43.-30,44.91,6.40
1067859,3,3801,37,0.56,10.1,0.1,0.4,0.-10,0.-9,8.87,11.83,90897.64,906.35,-43.-30,44.91,6.40
1067896,3,3838,37,0.21,10.1,0.4,0.4,0.-11,0.-9,8.81,11.83,90896.50,907.4,-51.-68,51.31,2.49
1067933,3,3875,37,0.46,10.2,0.2,0.4,0.-9,0.-9,8.87,11.83,90896.59,906.63,-51.-68,51.31,2.49
1067983,3,3925,50,0.57,10.0,0.1,0.4,0.-7,0.-9,8.87,11.83,90897.83,906.82,-59.-94,56.32,0.-91
1068022,3,3964,39,0.24,9.97,0.-7,0.5,0.-12,0.-10,8.81,11.83,90901.7,906.33,-59.-94,56.32,0.-91
1068059,3,4001,37,0.59,10.3,0.7,0.4,0.-10,0.-9,8.81,11.83,90898.88,907.23,-72.-1,61.22,-8.-56
1068096,3,4038,37,0.23,9.98,0.0,0.4,0.-7,0.-9,8.81,11.82,90899.83,906.63,-72.-1,61.22,-8.-56
1068133,3,4075,37,0.46,9.98,0.0,0.4,0.-13,0.-9,8.81,11.83,90903.17,907.12,-91.-87,65.25,-24.-30
1068170,3,4112,37,0.44,9.98,0.7,0.4,0.-9,0.-9,8.81,11.83,90893.25,906.63,-91.-87,65.25,-24.-30
1068209,3,4151,39,0.39,10.2,0.0,0.5,0.-9,0.-10,8.81,11.83,90897.74,906.34,-111.-52,67.35,-38.-86
1068246,3,4188,37,0.52,10.4,0.4,0.5,0.-9,0.-9,8.87,11.83,90902.12,906.43,-111.-52,67.35,-38.-86
1068283,3,4225,37,0.28,9.79,0.9,0.5,0.-10,0.-10,8.87,11.84,90897.64,906.84,-132.-99,67.4,-55.-45
1068320,3,4262,37,0.54,10.2,0.0,0.4,0.-8,0.-9,8.87,11.84,90893.35,906.44,-132.-99,67.4,-55.-45
1068357,3,4299,37,0.20,9.98,0.1,0.4,0.-9,0.-9,8.87,11.83,90900.88,906.34,-151.-32,64.61,-69.-32
1068396,3,4338,39,0.54,10.4,0.11,0.4,0.-10,0.-9,8.81,11.85,90903.7,906.34,-151.-32,64.61,-69.-32
1068433,3,4375,37,0.37,9.99,0.-5,0.4,0.-8,0.-9,8.81,11.84,90903.7,906.54,-165.-61,61.29,-79.-3
1068476,3,4418,43,0.33,9.98,0.0,0.5,0.-10,0.-10,8.81,11.84,90902.3,906.23,-165.-61,61.29,-79.-3
1068513,3,4455,37,0.59,10.3,0.11,0.4,0.-9,0.-9,8.75,11.82,90904.21,906.54,-177.-42,56.51,-86.-12
1068550,3,4492,37,0.19,9.97,0.0,0.4,0.-7,0.-10,8.81,11.84,90906.51,906.83,-177.-42,56.51,-86.-12
1068587,3,4529,37,0.39,10.5,0.-12,0.5,0.-10,0.-10,8.81,11.83,90897.64,905.74,172.51,51.49,-91.-30
1068627,3,4569,40,0.53,10.4,0.16,0.4,0.-9,0.-9,8.75,11.83,90898.78,906.23,172.51,51.49,-91.-30
1068664,3,4606,37,0.30,10.3,0.-6,0.5,0.-11,0.-10,8.81,11.84,90899.83,905.94,164.30,44.68,-94.-19
1068701,3,4643,37,0.57,10.8,0.-4,0.5,0.-11,0.-9,8.81,11.83,90894.40,906.74,164.30,44.68,-94.-19
1068738,3,4680,37,0.26,10.0,0.9,0.4,0.-8,0.-10,8.87,11.84,90897.64,906.54,157.31,39.52,-95.-79
1068775,3,4717,37,0.50,9.98,0.-2,0.4,0.-9,0.-9,8.81,11.83,90904.21,906.34,157.31,39.52,-95.-79
1068815,3,4757,40,0.42,10.0,0.-6,0.5,0.-12,0.-10,8.81,11.84,90902.3,906.34,151.32,31.93,-95.-79
1068851,3,4793,36,0.42,9.99,0.15,0.4,0.-6,0.-10,8.75,11.84,90901.92,906.84,151.32,31.93,-95.-79
1068888,3,4830,37,0.43,10.3,0.-8,0.4,0.-9,0.-9,8.87,11.84,90898.69,905.75,146.3,25.71,-95.-46
1068925,3,4867,37,0.27,10.1,0.-4,0.5,0.-11,0.-9,8.87,11.83,90904.21,906.44,146.3,25.71,-95.-46
1068962,3,4904,37,0.47,10.2,0.3,0.4,0.-5,0.-9,8.81,11.84,90902.3,906.65,140.7,21.57,-96.0
1069001,3,4943,39,0.28,9.99,0.-9,0.4,0.-11,0.-9,8.81,11.84,90900.88,906.74,140.7,21.57,-96.0
1069038,3,4980,37,0.49,10.1,0.7,0.4,0.-13,0.-9,8.75,11.83,90898.69,906.54,135.22,13.91,-93.-16
1069075,3,5017,37,0.35,9.99,0.9,0.4,0.-6,0.-9,8.81,11.84,90902.3,906.14,135.22,13.91,-93.-16
1069112,3,5054,37,0.35,10.2,0.0,0.4,0.-10,0.-9,8.81,11.84,90901.92,906.35,130.14,7.71,-90.-73
1069149,3,5091,37,0.39,9.99,0.11,0.4,0.-7,0.-9,8.81,11.83,90891.6,905.95,130.14,7.71,-90.-73
1069186,3,5128,37,0.29,9.99,0.1,0.4,0.-8,0.-10,8.81,11.84,90905.27,906.4,124.41,2.48,-88.-54
1069226,3,5168,40,0.60,10.0,0.0,0.5,0.-11,0.-10,8.81,11.84,90899.83,906.43,124.41,2.48,-88.-54
1069263,3,5205,37,0.34,10.1,0.13,0.4,0.-7,0.-9,8.81,11.84,90898.69,906.93,118.71,-2.-35,-86.-43
1069300,3,5242,37,0.32,10.0,0.6,0.5,0.-11,0.-10,8.81,11.84,90898.69,906.15,118.71,-2.-35,-86.-43
1069337,3,5279,37,0.39,9.99,0.5,0.5,0.-12,0.-9,8.87,11.84,90896.50,906.24,112.49,-8.-29,-81.-75
1069374,3,5316,37,0.26,9.98,0.7,0.4,0.-7,0.-10,8.81,11.84,90896.59,907.64,112.49,-8.-29,-81.-75
1069414,3,5356,40,0.48,9.99,0.-3,0.4,0.-10,0.-9,8.75,11.84,90900.88,906.34,106.10,-12.-82,-77.0
1069451,3,5393,37,0.41,10.1,0.2,0.4,0.-12,0.-9,8.81,11.84,90900.88,906.44,106.10,-12.-82,-77.0
1069488,3,5430,37,0.41,10.2,0.12,0.4,0.-6,0.-9,8.81,11.84,90908.50,906.74,99.69,-16.-30,-74.-11
1069539,3,5481,51,0.46,10.3,0.8,0.4,0.-7,0.-10,8.81,11.84,90896.69,906.63,99.69,-16.-30,-74.-11
1069576,3,5518,37,0.39,9.99,0.3,0.5,0.-10,0.-9,8.81,11.83,90900.98,906.15,92.29,-20.-8,-68.-61
1069610,3,5552,34,0.33,9.99,0.9,0.4,0.-8,0.-10,8.81,11.83,90902.3,905.94,92.29,-20.-8,-68.-61
1069647,3,5589,37,0.45,9.99,0.3,0.4,0.-12,0.-9,8.81,11.84,90898.69,906.74,83.96,-22.-84,-61.-21
1069684,3,5626,37,0.33,10.3,0.1,0.4,0.-9,0.-9,8.81,11.84,90903.17,906.14,83.96,-22.-84,-61.-21
1069721,3,5663,37,0.40,10.1,0.0,0.4,0.-7,0.-9,8.81,11.84,90899.74,906.44,76.13,-24.-94,-56.-14
1069758,3,5700,37,0.44,10.0,0.-1,0.4,0.-10,0.-9,8.81,11.85,90907.46,906.74,76.13,-24.-94,-56.-14
1069795,3,5737,37,0.35,9.99,0.10,0.4,0.-10,0.-10,8.81,11.84,90897.54,906.24,67.17,-26.-3,-49.-13
1069836,3,5778,41,0.51,10.2,0.-1,0.4,0.-8,0.-9,8.81,11.84,90906.21,906.44,67.17,-26.-3,-49.-13
1069872,3,5814,36,0.47,9.80,0.5,0.4,0.-9,0.-9,8.81,11.84,90898.69,905.65,58.67,-26.-20,-42.-37
1069909,3,5851,37,0.34,10.4,0.2,0.4,0.-9,0.-10,8.81,11.84,90901.92,906.84,58.67,-26.-20,-42.-37
1069946,3,5888,37,0.43,10.1,0.-5,0.5,0.-9,0.-10,8.87,11.84,90899.74,906.95,49.86,-25.-72,-35.-67
1069983,3,5925,37,0.32,10.8,0.7,0.5,0.-8,0.-10,8.81,11.84,90902.3,906.34,49.86,-25.-72,-35.-67
1070023,3,5965,40,0.44,10.4,0.-3,0.4,0.-10,0.-9,8.81,11.84,90901.92,906.44,41.17,-23.-95,-28.-83
1070065,3,6007,42,0.39,10.0,0.-11,0.4,0.-9,0.-9,8.81,11.84,90903.7,906.14,41.17,-23.-95,-28.-83
1070102,3,6044,37,0.33,9.97,0.1,0.4,0.-8,0.-9,8.81,11.84,90897.54,906.15,33.49,-22.-2,-23.-40
1070139,3,6081,37,0.44,9.97,0.1,0.4,0.-9,0.-9,8.81,11.84,90903.7,906.44,33.49,-22.-2,-23.-40
1070176,3,6118,37,0.40,9.99,0.0,0.4,0.-10,0.-9,8.87,11.85,90900.78,905.85,25.84,-18.-56,-17.-53
1070210,3,6152,34,0.45,10.2,0.3,0.4,0.-7,0.-10,8.75,11.84,90895.35,906.85,25.84,-18.-56,-17.-53
1070247,3,6189,37,0.43,10.0,0.-3,0.5,0.-10,0.-10,8.81,11.85,90906.32,905.95,18.26,-14.-5,-12.-5
1070284,3,6226,37,0.40,10.0,0.0,0.5,0.-10,0.-10,8.75,11.84,90909.55,906.84,18.26,-14.-5,-12.-5
1070321,3,6263,37,0.42,9.99,0.6,0.4,0.-7,0.-9,8.87,11.85,90903.7,906.35,11.66,-10.-65,-8.-15
1070358,3,6300,37,0.36,9.97,0.-2,0.4,0.-10,0.-9,8.87,11.85,90908.50,906.74,11.66,-10.-65,-8.-15
1070397,3,6339,39,0.40,9.99,0.1,0.4,0.-9,0.-9,8.81,11.84,90899.83,906.84,5.54,-5.-88,-4.-44
1070434,3,6376,37,0.36,10.0,0.1,0.4,0.-9,0.-9,8.81,11.84,90902.97,906.45,5.54,-5.-88,-4.-44
1070471,3,6413,37,0.44,9.97,0.2,0.4,0.-11,0.-10,8.75,11.84,90906.32,906.15,0.-45,0.61,-1.-2
1070508,3,6450,37,0.35,9.98,0.8,0.4,0.-8,0.-10,8.81,11.85,90896.50,906.74,0.-45,0.61,-1.-2
1070545,3,6487,37,0.47,10.0,0.0,0.5,0.-9,0.-10,8.75,11.83,90900.78,906.35,-6.-30,6.9,1.80
1070587,3,6529,42,0.38,10.0,0.8,0.4,0.-11,0.-9,8.81,11.84,90899.83,906.64,-6.-30,6.9,1.80
1070627,3,6569,40,0.33,10.2,0.3,0.4,0.-7,0.-10,8.81,11.84,90906.32,906.24,-11.-88,10.48,4.2
1070664,3,6606,37,0.52,10.3,0.0,0.4,0.-9,0.-9,8.87,11.85,90899.74,906.84,-11.-88,10.48,4.2
1070701,3,6643,37,0.31,10.0,0.5,0.4,0.-10,0.-9,8.81,11.83,90907.46,906.54,-17.-14,16.63,5.42
1070738,3,6680,37,0.31,9.98,0.0,0.4,0.-7,0.-9,8.81,11.84,90901.92,906.45,-17.-14,16.63,5.42
1070775,3,6717,37,0.40,10.0,0.1,0.4,0.-9,0.-9,8.81,11.84,90898.69,906.64,-22.-44,22.42,6.48
1070815,3,6757,40,0.27,9.98,0.3,0.4,0.-9,0.-9,8.81,11.85,90904.12,906.35,-22.-44,22.42,6.48
1070853,3,6795,38,0.48,10.1,0.-1,0.5,0.-10,0.-9,8.81,11.84,90896.50,906.94,-28.-9,29.8,6.88
1070889,3,6831,36,0.37,10.1,0.4,0.4,0.-9,0.-9,8.87,11.83,90905.17,906.45,-28.-9,29.8,6.88
1070926,3,6868,37,0.35,10.0,0.11,0.4,0.-10,0.-9,8.75,11.84,90889.92,906.15,-34.-16,35.46,6.39
1070963,3,6905,37,0.48,10.3,0.2,0.5,0.-12,0.-9,8.87,11.84,90898.69,906.5,-34.-16,35.46,6.39
1071000,3,6942,37,0.27,10.2,0.7,0.5,0.-7,0.-10,8.87,11.84,90896.50,906.74,-40.-37,40.72,6.25
1071040,3,6982,40,0.50,10.3,0.0,0.4,0.-9,0.-9,8.81,11.85,90904.12,906.84,-40.-37,40.72,6.25
1071077,3,7019,37,0.31,10.0,0.0,0.4,0.-12,0.-9,8.81,11.84,90897.64,906.54,-48.-72,47.80,2.66
1071128,3,7070,51,0.30,9.97,0.2,0.4,0.-9,0.-9,8.81,11.84,90904.21,906.74,-48.-72,47.80,2.66
1071165,3,7107,37,0.50,10.4,0.12,0.4,0.-9,0.-10,8.87,11.83,90906.41,906.4,-56.-73,52.97,0.-12
1071202,3,7144,37,0.28,9.98,0.0,0.5,0.-11,0.-10,8.81,11.83,90898.78,906.44,-56.-73,52.97,0.-12
1071241,3,7183,39,0.52,10.2,0.3,0.5,0.-10,0.-9,8.81,11.84,90902.3,906.4,-67.-46,58.43,-6.-22
1071278,3,7220,37,0.38,10.0,0.8,0.4,0.-8,0.-9,8.81,11.83,90900.88,906.15,-67.-46,58.43,-6.-22
1071315,3,7257,37,0.36,10.1,0.-1,0.4,0.-9,0.-9,8.81,11.84,90902.3,906.15,-81.-19,62.74,-15.-32
1071352,3,7294,37,0.42,10.2,0.0,0.4,0.-7,0.-9,8.87,11.84,90895.45,906.64,-81.-19,62.74,-15.-32
1071389,3,7331,37,0.27,10.0,0.0,0.4,0.-9,0.-10,8.81,11.84,90903.7,906.55,-98.-27,65.79,-27.-37
1071426,3,7368,37,0.52,10.5,0.0,0.4,0.-11,0.-10,8.75,11.85,90895.35,906.84,-98.-27,65.79,-27.-37
1071465,3,7407,39,0.30,9.98,0.5,0.4,0.-9,0.-9,8.81,11.84,90903.7,906.74,-117.-13,67.4,-41.-61
1071502,3,7444,37,0.33,10.0,0.9,0.4,0.-8,0.-9,8.87,11.84,90898.69,906.94,-117.-13,67.4,-41.-61
1071539,3,7481,37,0.32,9.96,0.0,0.4,0.-10,0.-9,8.81,11.84,90898.69,906.54,-137.-82,65.80,-58.-5
1071576,3,7518,37,0.43,9.97,0.6,0.4,0.-8,0.-9,8.87,11.84,90896.39,905.75,-137.-82,65.80,-58.-5
1071613,3,7555,37,0.47,10.0,0.5,0.4,0.-8,0.-9,8.87,11.84,90902.3,905.66,-153.-90,63.41,-69.-75
1071652,3,7594,39,0.34,10.0,0.0,0.4,0.-10,0.-10,8.75,11.85,90897.54,906.24,-153.-90,63.41,-69.-75
1071689,3,7631,37,0.50,10.0,0.10,0.4,0.-7,0.-10,8.81,11.84,90904.12,906.64,-167.-78,60.50,-78.-69
1071726,3,7668,37,0.29,9.98,0.2,0.4,0.-9,0.-10,8.87,11.85,90894.40,906.35,-167.-78,60.50,-78.-69
1071763,3,7705,37,0.47,10.3,0.0,0.4,0.-11,0.-9,8.87,11.85,90895.35,906.75,-179.-31,54.23,-85.-69
1071800,3,7742,37,0.41,10.1,0.13,0.4,0.-7,0.-9,8.75,11.85,90905.17,906.45,-179.-31,54.23,-85.-69
1071839,3,7781,39,0.23,9.99,0.0,0.4,0.-10,0.-9,8.81,11.84,90902.97,906.5,171.79,47.53,-89.-72
1071877,3,7819,38,0.45,10.2,0.4,0.5,0.-12,0.-9,8.81,11.84,90897.64,906.25,171.79,47.53,-89.-72
1071913,3,7855,36,0.22,9.98,0.6,0.4,0.-6,0.-9,8.81,11.85,90907.36,905.96,164.31,43.55,-92.-35
1071950,3,7892,37,0.50,9.99,0.-3,0.4,0.-10,0.-9,8.81,11.84,90901.92,906.35,164.31,43.55,-92.-35
1071987,3,7929,37,0.38,10.0,0.-4,0.4,0.-11,0.-9,8.81,11.84,90899.74,905.95,157.71,36.29,-93.-23
1072024,3,7966,37,0.45,10.2,0.1,0.4,0.-6,0.-10,8.87,11.85,90894.30,906.5,157.71,36.29,-93.-23
1072063,3,8005,39,0.43,10.4,0.-3,0.5,0.-11,0.-9,8.81,11.85,90901.83,906.75,151.71,29.21,-93.-53
1072100,3,8042,37,0.30,10.2,0.5,0.4,0.-10,0.-9,8.81,11.84,90904.12,906.95,151.71,29.21,-93.-53
1072137,3,8079,37,0.47,10.1,0.6,0.4,0.-7,0.-9,8.81,11.85,90899.74,906.55,146.18,24.1,-93.-77
1072179,3,8121,42,0.33,9.98,0.-1,0.4,0.-10,0.-9,8.81,11.84,90904.12,906.35,146.18,24.1,-93.-77
1072216,3,8158,37,0.36,9.95,0.-2,0.5,0.-10,0.-10,8.81,11.84,90901.92,906.54,140.48,17.53,-92.-83
1072256,3,8198,40,0.39,10.1,0.0,0.4,0.-7,0.-9,8.81,11.85,90901.92,906.45,140.48,17.53,-92.-83
1072293,3,8235,37,0.33,9.99,0.0,0.4,0.-11,0.-10,8.87,11.84,90895.35,905.75,135.7,10.77,-90.-85
1072330,3,8272,37,0.45,10.0,0.3,0.4,0.-10,0.-10,8.87,11.85,90906.32,905.95,135.7,10.77,-90.-85
1072367,3,8309,37,0.34,10.3,0.5,0.4,0.-7,0.-9,8.81,11.84,90897.64,906.5,129.69,5.77,-89.-61
1072404,3,8346,37,0.38,10.1,0.-2,0.4,0.-10,0.-9,8.87,11.85,90905.17,906.45,129.69,5.77,-89.-61
1072443,3,8385,39,0.41,10.1,0.5,0.4,0.-10,0.-9,8.81,11.85,90907.36,906.25,124.30,0.11,-86.-94
1072480,3,8422,37,0.37,10.3,0.3,0.4,0.-7,0.-10,8.81,11.85,90905.17,906.65,124.30,0.11,-86.-94
1072517,3,8459,37,0.44,9.96,0.0,0.5,0.-10,0.-10,8.81,11.85,90899.74,906.25,118.20,-5.-52,-83.-74
1072554,3,8496,37,0.39,10.1,0.1,0.5,0.-10,0.-10,8.87,11.84,90900.88,906.26,118.20,-5.-52,-83.-74
1072591,3,8533,37,0.43,10.1,0.4,0.4,0.-9,0.-10,8.81,11.85,90901.92,906.54,111.87,-10.-42,-80.-44
1072628,3,8570,37,0.32,9.95,0.0,0.4,0.-9,0.-9,8.87,11.85,90907.36,906.74,111.87,-10.-42,-80.-44
1072668,3,8610,40,0.35,10.2,0.3,0.4,0.-11,0.-10,8.75,11.85,90900.78,906.45,104.78,-15.-33,-75.-40
1072731,3,8673,63,0.32,9.96,0.-2,0.4,0.-9,0.-10,8.81,11.85,90892.31,906.24,104.78,-15.-33,-75.-40
1072768,3,8710,37,0.47,10.0,0.2,0.4,0.-9,0.-9,8.81,11.83,90907.56,905.84,97.69,-19.-40,-70.-41
1072805,3,8747,37,0.31,9.95,0.2,0.4,0.-8,0.-10,8.87,11.84,90902.3,906.64,97.69,-19.-40,-70.-41
1072842,3,8784,37,0.39,9.99,0.-5,0.5,0.-9,0.-10,8.87,11.83,90900.88,906.64,89.61,-22.-98,-64.-73
1072883,3,8825,41,0.47,9.99,0.4,0.4,0.-11,0.-9,8.81,11.84,90900.88,906.15,89.61,-22.-98,-64.-73
1072919,3,8861,36,0.29,10.2,0.0,0.4,0.-8,0.-9,8.81,11.85,90895.45,906.64,81.26,-25.-40,-58.-51
1072956,3,8898,37,0.51,10.6,0.0,0.4,0.-9,0.-9,8.81,11.84,90898.69,906.65,81.26,-25.-40,-58.-51
1072993,3,8935,37,0.29,10.0,0.4,0.4,0.-10,0.-10,8.81,11.85,90900.78,906.65,72.31,-27.-11,-51.-58
1073030,3,8972,37,0.50,9.82,0.10,0.4,0.-10,0.-10,8.87,11.85,90898.59,906.26,72.31,-27.-11,-51.-58
1073064,3,9006,34,0.34,10.4,0.3,0.5,0.-9,0.-9,8.87,11.85,90898.69,906.46,63.28,-27.-98,-44.-62
1073101,3,9043,37,0.33,10.1,0.7,0.4,0.-8,0.-9,8.87,11.85,90904.12,906.35,63.28,-27.-98,-44.-62
1073138,3,9080,37,0.46,9.99,0.-2,0.4,0.-10,0.-9,8.87,11.85,90897.54,906.15,54.28,-27.-43,-37.-4
1073175,3,9117,37,0.31,10.1,0.5,0.4,0.-8,0.-9,8.87,11.86,90902.97,906.25,54.28,-27.-43,-37.-4
1073218,3,9160,43,0.38,10.4,0.1,0.4,0.-8,0.-9,8.81,11.85,90900.78,906.65,45.63,-26.-50,-30.-73
1073258,3,9200,40,0.43,10.2,0.0,0.4,0.-10,0.-9,8.81,11.85,90898.69,906.74,45.63,-26.-50,-30.-73
1073295,3,9237,37,0.40,9.99,0.-2,0.4,0.-9,0.-9,8.81,11.84,90902.88,906.55,37.40,-24.-55,-24.-73
1073332,3,9274,37,0.40,10.1,0.-4,0.4,0.-8,0.-9,8.81,11.85,90897.54,906.65,37.40,-24.-55,-24.-73
1073369,3,9311,37,0.36,10.5,0.1,0.4,0.-11,0.-9,8.81,11.86,90907.36,906.44,29.20,-20.-95,-18.-23
1073406,3,9348,37,0.40,9.99,0.5,0.4,0.-8,0.-9,8.81,11.85,90898.69,906.35,29.20,-20.-95,-18.-23
1073443,3,9385,37,0.38,10.0,0.-2,0.5,0.-9,0.-10,8.81,11.85,90901.83,906.65,21.27,-17.-34,-12.-65
1073483,3,9425,40,0.44,10.0,0.1,0.4,0.-10,0.-9,8.81,11.85,90904.12,906.15,21.27,-17.-34,-12.-65
1073520,3,9462,37,0.33,10.0,0.0,0.4,0.-8,0.-10,8.87,11.85,90906.21,906.55,14.7,-13.-80,-8.-17
1073557,3,9499,37,0.43,9.99,0.0,0.5,0.-10,0.-10,8.81,11.85,90900.78,906.75,14.7,-13.-80,-8.-17
1073594,3,9536,37,0.40,10.2,0.3,0.4,0.-10,0.-9,8.87,11.86,90904.12,906.54,7.57,-9.-53,-4.-32
1073631,3,9573,37,0.38,9.98,0.1,0.4,0.-10,0.-10,8.87,11.85,90898.59,905.66,7.57,-9.-53,-4.-32
1073665,3,9607,34,0.46,10.0,0.2,0.4,0.-9,0.-9,8.81,11.86,90904.3,906.46,1.56,-4.-53,0.-90
1073702,3,9644,37,0.24,10.4,0.7,0.4,0.-9,0.-9,8.81,11.85,90906.21,906.65,1.56,-4.-53,0.-90
1073744,3,9686,42,0.47,9.99,0.0,0.4,0.-9,0.-9,8.87,11.86,90910.60,906.15,-4.-11,0.85,1.95
1073781,3,9723,37,0.41,9.96,0.-7,0.5,0.-10,0.-9,8.81,11.85,90901.92,906.45,-4.-11,0.85,1.95
1073818,3,9760,37,0.46,10.0,0.3,0.5,0.-9,0.-10,8.87,11.85,90904.3,906.95,-10.-11,6.29,4.44
1073855,3,9797,37,0.43,9.98,0.0,0.4,0.-9,0.-9,8.81,11.85,90894.30,906.75,-10.-11,6.29,4.44
1073896,3,9838,41,0.35,10.1,0.4,0.4,0.-10,0.-9,8.81,11.84,90899.64,905.96,-15.-65,12.46,6.0
1073932,3,9874,36,0.44,10.3,0.9,0.4,0.-9,0.-9,8.87,11.85,90901.83,907.14,-15.-65,12.46,6.0
1073969,3,9911,37,0.35,10.1,0.5,0.5,0.-10,0.-10,8.81,11.85,90901.92,906.15,-21.-41,18.83,7.25
1074006,3,9948,37,0.42,9.97,0.2,0.4,0.-10,0.-10,8.87,11.86,90899.64,906.35,-21.-41,18.83,7.25
1074043,3,9985,37,0.35,10.1,0.4,0.4,0.-8,0.-9,8.81,11.85,90897.54,906.36,-26.-79,24.27,7.95
1074077,3,10019,34,0.42,10.1,0.0,0.4,0.-10,0.-9,8.81,11.86,90907.26,906.26,-26.-79,24.27,7.95
1074114,3,10056,37,0.37,10.3,0.4,0.4,0.-8,0.-9,8.81,11.86,90898.59,906.46,-32.-6,30.3,8.2
1074151,3,10093,37,0.37,10.2,0.4,0.4,0.-8,0.-9,8.81,11.87,90900.78,906.55,-32.-6,30.3,8.2
1074188,3,10130,37,0.44,9.97,0.2,0.4,0.-9,0.-9,8.87,11.85,90902.88,906.85,-38.-36,36.45,7.1
1074225,3,10167,37,0.36,9.99,0.6,0.4,0.-10,0.-10,8.87,11.86,90905.17,906.6,-38.-36,36.45,7.1
1074269,3,10211,44,0.38,10.0,0.1,0.4,0.-9,0.-10,8.81,11.85,90901.92,906.35,-45.-35,42.27,5.23
1074313,3,10255,44,0.42,9.98,0.3,0.4,0.-10,0.-10,8.81,11.84,90901.92,906.35,-45.-35,42.27,5.23
1074350,3,10292,37,0.31,9.95,0.4,0.5,0.-9,0.-10,8.87,11.85,90900.78,906.65,-53.-56,48.31,2.26
1074387,3,10329,37,0.35,9.93,0.0,0.5,0.-10,0.-10,8.87,11.85,90902.97,906.54,-53.-56,48.31,2.26
1074424,3,10366,37,0.32,10.0,0.2,0.4,0.-9,0.-9,8.87,11.85,90902.97,906.65,-63.-1,53.69,-2.-51
1074461,3,10403,37,0.46,9.99,0.3,0.4,0.-9,0.-9,8.87,11.85,90905.7,906.65,-63.-1,53.69,-2.-51
1074494,3,10436,33,0.36,10.2,0.0,0.4,0.-8,0.-9,8.87,11.85,90895.25,906.75,-73.-4,57.97,-8.-7
1074531,3,10473,37,0.43,10.2,0.-2,0.4,0.-11,0.-10,8.81,11.86,90907.36,906.55,-73.-4,57.97,-8.-7
1074568,3,10510,37,0.43,10.2,0.4,0.4,0.-10,0.-9,8.87,11.85,90898.59,907.6,-87.-65,61.91,-18.-22
1074605,3,10547,37,0.41,9.83,0.11,0.4,0.-8,0.-9,8.87,11.86,90894.21,906.46,-87.-65,61.91,-18.-22
1074642,3,10584,37,0.49,10.0,0.4,0.4,0.-8,0.-9,8.87,11.86,90900.78,906.95,-103.-58,64.32,-29.-82
1074681,3,10623,39,0.27,9.95,0.4,0.4,0.-9,0.-9,8.81,11.84,90897.44,906.35,-103.-58,64.32,-29.-82
1074718,3,10660,37,0.50,10.5,0.2,0.4,0.-9,0.-9,8.81,11.85,90900.78,906.35,-121.-89,65.17,-43.-65
1074755,3,10697,37,0.36,10.2,0.-1,0.5,0.-9,0.-10,8.81,11.86,90896.39,906.95,-121.-89,65.17,-43.-65
1074806,3,10748,51,0.31,9.95,0.1,0.4,0.-9,0.-9,8.87,11.85,90901.92,906.54,-140.-42,63.82,-57.-81
1074843,3,10785,37,0.48,10.5,0.5,0.4,0.-8,0.-9,8.75,11.85,90900.78,906.15,-140.-42,63.82,-57.-81
1074880,3,10822,37,0.28,9.99,0.0,0.5,0.-10,0.-10,8.87,11.85,90899.74,906.65,-157.-21,60.48,-70.-4
1074920,3,10862,40,0.43,10.2,0.3,0.4,0.-10,0.-9,8.81,11.85,90904.12,906.65,-157.-21,60.48,-70.-4
1074956,3,10898,36,0.46,9.98,0.1,0.4,0.-8,0.-9,8.81,11.84,90900.78,906.54,-169.-94,56.62,-78.-17
1074993,3,10935,37,0.33,10.0,0.-1,0.4,0.-9,0.-10,8.81,11.85,90898.59,906.35,-169.-94,56.62,-78.-17
1075030,3,10972,37,0.42,10.2,0.4,0.4,0.-8,0.-9,8.81,11.85,90900.78,905.86,179.90,51.91,-83.-96
1075067,3,11009,37,0.32,9.96,0.2,0.4,0.-9,0.-9,8.81,11.85,90897.54,906.35,179.90,51.91,-83.-96
1075106,3,11048,39,0.50,10.2,0.0,0.5,0.-9,0.-10,8.81,11.86,90897.44,906.15,170.75,46.22,-88.-18
1075143,3,11085,37,0.32,10.1,0.1,0.4,0.-9,0.-10,8.81,11.84,90898.59,906.35,170.75,46.22,-88.-18
1075180,3,11122,37,0.34,9.98,0.-4,0.4,0.-10,0.-10,8.81,11.85,90901.83,906.95,163.26,39.51,-90.-52
1075217,3,11159,37,0.33,10.3,0.3,0.5,0.-9,0.-10,8.81,11.85,90905.17,906.35,163.26,39.51,-90.-52
1075254,3,11196,37,0.36,10.3,0.4,0.4,0.-8,0.-10,8.87,11.85,90900.68,906.35,156.59,34.5,-91.-88
1075288,3,11230,34,0.48,10.1,0.5,0.4,0.-8,0.-9,8.81,11.85,90897.35,906.65,156.59,34.5,-91.-88
1075331,3,11273,43,0.31,10.1,0.2,0.4,0.-10,0.-9,8.87,11.86,90899.64,906.26,150.87,27.60,-91.-99
1075368,3,11310,37,0.45,10.4,0.7,0.4,0.-8,0.-9,8.81,11.85,90899.74,906.46,150.87,27.60,-91.-99
1075405,3,11347,37,0.36,10.0,0.3,0.4,0.-9,0.-9,8.87,11.85,90898.59,906.75,145.38,21.63,-91.-60
1075442,3,11384,37,0.40,10.0,0.1,0.4,0.-9,0.-9,8.87,11.86,90899.64,906.35,145.38,21.63,-91.-60
1075482,3,11424,40,0.40,10.0,0.0,0.4,0.-9,0.-9,8.81,11.84,90889.82,906.25,139.99,15.86,-90.-81
1075519,3,11461,37,0.35,10.1,0.-1,0.4,0.-10,0.-9,8.87,11.85,90899.74,906.46,139.99,15.86,-90.-81
1075556,3,11498,37,0.42,10.3,0.-3,0.4,0.-9,0.-9,8.87,11.85,90899.74,906.45,134.52,9.86,-89.-31
1075593,3,11535,37,0.34,10.3,0.2,0.4,0.-10,0.-10,8.87,11.86,90901.83,906.66,134.52,9.86,-89.-31
1075630,3,11572,37,0.41,10.0,0.4,0.5,0.-10,0.-10,8.81,11.87,90902.97,906.36,128.82,3.69,-87.-13
1075667,3,11609,37,0.38,9.99,0.2,0.4,0.-9,0.-10,8.87,11.85,90898.59,906.86,128.82,3.69,-87.-13
1075707,3,11649,40,0.41,10.1,0.3,0.4,0.-8,0.-9,8.87,11.86,90899.64,907.25,123.7,-1.-57,-84.-81
1075744,3,11686,37,0.37,10.3,0.2,0.4,0.-10,0.-10,8.81,11.85,90895.25,906.66,123.7,-1.-57,-84.-81
1075781,3,11723,37,0.38,10.1,0.5,0.4,0.-8,0.-9,8.81,11.86,90896.39,906.15,117.15,-6.-58,-81.-96
1075818,3,11760,37,0.37,9.98,0.-1,0.4,0.-8,0.-9,8.87,11.86,90900.78,906.75,117.15,-6.-58,-81.-96
1075860,3,11802,42,0.39,10.1,0.0,0.4,0.-10,0.-9,8.87,11.86,90898.69,905.85,111.7,-11.-48,-77.-95
1075900,3,11842,40,0.36,10.0,0.5,0.4,0.-9,0.-10,8.81,11.86,90899.74,906.75,111.7,-11.-48,-77.-95
1075938,3,11880,38,0.41,9.98,0.0,0.4,0.-9,0.-9,8.93,11.84,90902.97,906.66,104.27,-15.-86,-73.-72
1075974,3,11916,36,0.41,9.99,0.3,0.4,0.-9,0.-9,8.81,11.85,90898.50,906.66,104.27,-15.-86,-73.-72
1076011,3,11953,37,0.46,10.1,0.1,0.4,0.-9,0.-9,8.87,11.85,90898.59,906.46,97.4,-19.-69,-68.-56
1076048,3,11990,37,0.40,9.99,0.4,0.4,0.-8,0.-9,8.87,11.86,90894.21,906.55,97.4,-19.-69,-68.-56
1076087,3,12029,39,0.34,10.3,0.4,0.5,0.-10,0.-10,8.87,11.86,90902.97,906.45,88.88,-23.-21,-62.-75
1076124,3,12066,37,0.44,9.97,0.0,0.4,0.-10,0.-9,8.81,11.85,90902.97,906.95,88.88,-23.-21,-62.-75
1076161,3,12103,37,0.35,10.4,0.1,0.4,0.-9,0.-9,8.87,11.84,90892.1,906.55,80.65,-25.-71,-56.-71
1076198,3,12140,37,0.48,9.81,0.2,0.4,0.-9,0.-9,8.81,11.86,90895.25,906.6,80.65,-25.-71,-56.-71
1076235,3,12177,37,0.39,10.2,0.2,0.4,0.-8,0.-9,8.87,11.85,90897.44,907.6,72.58,-27.-9,-50.-61
1076272,3,12214,37,0.39,9.96,0.4,0.4,0.-9,0.-9,8.87,11.86,90907.26,906.55,72.58,-27.-9,-50.-61
1076312,3,12254,40,0.48,10.1,0.2,0.4,0.-9,0.-9,8.87,11.86,90893.16,906.35,63.95,-27.-76,-43.-84
1076349,3,12291,37,0.30,9.99,0.0,0.4,0.-9,0.-9,8.81,11.86,90906.21,906.46,63.95,-27.-76,-43.-84
1076401,3,12343,52,0.39,9.99,0.0,0.5,0.-9,0.-9,8.81,11.86,90901.92,906.74,54.83,-27.-69,-36.-73
1076438,3,12380,37,0.43,9.98,0.-1,0.4,0.-8,0.-9,8.87,11.84,90898.59,906.25,54.83,-27.-69,-36.-73
1076475,3,12417,37,0.36,10.2,0.1,0.4,0.-9,0.-9,8.93,11.85,90896.50,906.15,46.29,-26.-72,-30.-28
1076515,3,12457,40,0.46,10.0,0.3,0.4,0.-9,0.-10,8.81,11.84,90900.78,907.35,46.29,-26.-72,-30.-28
1076552,3,12494,37,0.36,10.0,0.0,0.4,0.-9,0.-9,8.81,11.86,90901.92,905.96,37.89,-24.-62,-23.-81
1076589,3,12531,37,0.43,10.0,0.4,0.4,0.-9,0.-9,8.81,11.86,90898.59,906.35,37.89,-24.-62,-23.-81
1076626,3,12568,37,0.33,10.0,0.0,0.4,0.-10,0.-9,8.81,11.86,90898.59,906.35,29.85,-21.-45,-17.-74
1076663,3,12605,37,0.41,10.4,0.0,0.4,0.-10,0.-9,8.87,11.86,90899.64,906.75,29.85,-21.-45,-17.-74
1076703,3,12645,40,0.44,9.98,0.4,0.4,0.-9,0.-9,8.87,11.86,90900.68,906.46,22.53,-18.-20,-12.-60
1076740,3,12682,37,0.35,9.99,0.0,0.5,0.-10,0.-10,8.81,11.86,90897.44,906.75,22.53,-18.-20,-12.-60
1076777,3,12719,37,0.44,9.99,0.0,0.5,0.-10,0.-10,8.87,11.85,90901.83,906.95,15.24,-13.-89,-7.-52
1076814,3,12756,37,0.37,10.1,0.11,0.5,0.-9,0.-10,8.81,11.86,90909.46,906.55,15.24,-13.-89,-7.-52
1076851,3,12793,37,0.40,9.99,0.0,0.4,0.-8,0.-10,8.87,11.86,90897.35,906.55,8.59,-9.-61,-3.-64
1076896,3,12838,45,0.43,9.99,0.0,0.4,0.-9,0.-9,8.81,11.86,90897.44,906.75,8.59,-9.-61,-3.-64
1076933,3,12875,37,0.38,10.5,0.5,0.4,0.-9,0.-9,8.81,11.85,90900.68,906.15,2.52,-4.-79,0.-29
1076971,3,12913,38,0.37,10.1,0.0,0.4,0.-8,0.-9,8.87,11.86,90897.54,906.65,2.52,-4.-79,0.-29
1077007,3,12949,36,0.42,9.97,0.3,0.4,0.-10,0.-10,8.87,11.85,90896.39,906.55,-3.-53,1.38,2.76
1077044,3,12986,37,0.41,10.0,0.6,0.4,0.-9,0.-9,8.81,11.85,90896.30,906.36,-3.-53,1.38,2.76
1077081,3,13023,37,0.43,10.0,0.0,0.4,0.-9,0.-9,8.81,11.86,90898.50,906.46,-8.-87,6.85,5.2
1077121,3,13063,40,0.37,10.0,0.0,0.4,0.-9,0.-9,8.87,11.86,90896.39,905.96,-8.-87,6.85,5.2
1077158,3,13100,37,0.44,9.99,0.0,0.4,0.-9,0.-9,8.81,11.85,90898.59,906.26,-14.-15,12.44,6.87
1077195,3,13137,37,0.36,9.99,0.1,0.4,0.-9,0.-9,8.87,11.85,90902.97,906.86,-14.-15,12.44,6.87
1077232,3,13174,37,0.38,10.2,0.0,0.4,0.-10,0.-10,8.81,11.85,90902.88,907.35,-19.-80,18.54,8.21
1077269,3,13211,37,0.40,10.0,0.4,0.4,0.-10,0.-10,8.81,11.86,90893.6,906.75,-19.-80,18.54,8.21
1077309,3,13251,40,0.39,9.99,0.2,0.5,0.-9,0.-10,8.81,11.86,90901.83,906.46,-25.-50,24.78,9.8
1077346,3,13288,37,0.34,10.0,0.8,0.5,0.-10,0.-10,8.81,11.86,90896.39,906.86,-25.-50,24.78,9.8
1077383,3,13325,37,0.43,9.95,0.3,0.4,0.-9,0.-9,8.87,11.86,90904.3,906.66,-31.-21,30.91,9.27
1077425,3,13367,42,0.38,10.1,0.4,0.4,0.-9,0.-9,8.87,11.86,90898.59,907.45,-31.-21,30.91,9.27
1077462,3,13404,37,0.37,10.2,0.1,0.4,0.-9,0.-9,8.81,11.86,90897.54,906.75,-37.-12,36.68,8.68
1077499,3,13441,37,0.39,10.1,0.0,0.4,0.-9,0.-9,8.81,11.86,90900.78,906.36,-37.-12,36.68,8.68
1077542,3,13484,43,0.40,9.99,0.0,0.4,0.-9,0.-9,8.93,11.86,90898.59,906.75,-43.-50,42.40,7.31
1077579,3,13521,37,0.36,9.98,0.-2,0.4,0.-9,0.-9,8.93,11.85,90899.64,906.6,-43.-50,42.40,7.31
1077616,3,13558,37,0.39,10.1,0.-1,0.4,0.-9,0.-9,8.87,11.86,90899.54,906.46,-50.-98,48.1,4.64
1077653,3,13595,37,0.39,10.1,0.0,0.4,0.-9,0.-9,8.87,11.86,90895.25,906.56,-50.-98,48.1,4.64
1077690,3,13632,37,0.37,10.0,0.4,0.5,0.-9,0.-10,8.87,11.86,90903.92,906.7,-60.-28,53.69,0.33
1077724,3,13666,34,0.40,9.97,0.1,0.4,0.-8,0.-9,8.81,11.86,90899.54,906.76,-60.-28,53.69,0.33
1077761,3,13703,37,0.39,9.98,0.2,0.4,0.-9,0.-9,8.87,11.85,90897.35,906.55,-71.-56,58.69,-6.-24
1077798,3,13740,37,0.40,9.98,0.0,0.4,0.-9,0.-9,8.81,11.85,90902.88,906.6,-71.-56,58.69,-6.-24
1077835,3,13777,37,0.41,10.2,0.4,0.4,0.-9,0.-9,8.87,11.86,90901.83,906.75,-84.-97,62.50,-15.-14
1077872,3,13814,37,0.40,10.2,0.0,0.4,0.-9,0.-9,8.87,11.86,90898.50,906.16,-84.-97,62.50,-15.-14
1077909,3,13851,37,0.41,10.0,0.-1,0.4,0.-9,0.-9,8.87,11.86,90898.59,906.56,-101.-85,64.97,-27.-73
1077962,3,13904,53,0.39,10.1,0.1,0.4,0.-9,0.-10,8.87,11.86,90900.88,906.94,-101.-85,64.97,-27.-73
1078000,3,13942,38,0.35,10.2,0.2,0.4,0.-9,0.-9,8.87,11.85,90899.64,906.85,-120.-40,66.1,-41.-73
1078036,3,13978,36,0.41,9.99,0.2,0.4,0.-10,0.-10,8.87,11.85,90893.6,906.95,-120.-40,66.1,-41.-73
1078073,3,14015,37,0.43,10.1,0.0,0.4,0.-9,0.-10,8.87,11.85,90897.44,906.35,-139.-34,64.94,-56.-8
1078110,3,14052,37,0.40,10.0,0.0,0.4,0.-10,0.-10,8.87,11.86,90897.44,905.46,-139.-34,64.94,-56.-8
1078150,3,14092,40,0.41,9.99,0.0,0.5,0.-9,0.-10,8.81,11.86,90897.54,906.75,-156.-45,61.92,-68.-62
1078187,3,14129,37,0.38,9.97,0.3,0.4,0.-9,0.-10,8.81,11.85,90902.88,906.46,-156.-45,61.92,-68.-62
1078224,3,14166,37,0.40,10.3,0.-5,0.4,0.-10,0.-10,8.81,11.86,90896.30,906.36,-169.-92,57.53,-77.-34
1078261,3,14203,37,0.33,10.2,0.4,0.4,0.-10,0.-10,8.81,11.85,90900.68,906.85,-169.-92,57.53,-77.-34
1078298,3,14240,37,0.47,10.1,0.2,0.4,0.-9,0.-10,8.87,11.86,90899.64,906.45,179.38,52.33,-83.-21
1078337,3,14279,39,0.34,10.0,0.4,0.5,0.-9,0.-10,8.81,11.85,90902.97,906.36,179.38,52.33,-83.-21
1078374,3,14316,37,0.37,10.2,0.1,0.4,0.-9,0.-10,8.81,11.85,90898.59,906.96,170.48,46.62,-87.-18
1078411,3,14353,37,0.38,9.99,0.8,0.4,0.-10,0.-9,8.87,11.86,90906.12,906.46,170.48,46.62,-87.-18
1078453,3,14395,42,0.33,10.0,0.1,0.4,0.-9,0.-9,8.81,11.86,90906.21,906.95,163.7,40.69,-89.-51
1078490,3,14432,37,0.47,9.99,0.4,0.5,0.-9,0.-9,8.81,11.85,90897.54,906.36,163.7,40.69,-89.-51
1078524,3,14466,34,0.33,9.96,0.8,0.4,0.-9,0.-10,8.81,11.86,90903.92,906.56,156.39,34.60,-90.-72
1078561,3,14503,37,0.44,10.2,0.3,0.4,0.-9,0.-9,8.81,11.86,90901.73,906.15,156.39,34.60,-90.-72
1078598,3,14540,37,0.38,10.2,0.6,0.4,0.-9,0.-9,8.87,11.86,90899.54,906.66,150.87,28.43,-90.-86
1078635,3,14577,37,0.38,10.1,0.6,0.4,0.-9,0.-9,8.93,11.86,90898.50,906.56,150.87,28.43,-90.-86
1078672,3,14614,37,0.45,10.0,0.3,0.4,0.-9,0.-10,8.87,11.86,90899.64,906.55,145.9,22.36,-90.-66
1078709,3,14651,37,0.33,10.4,0.1,0.4,0.-10,0.-9,8.87,11.86,90902.88,906.95,145.9,22.36,-90.-66
1078749,3,14691,40,0.43,9.99,0.0,0.4,0.-9,0.-10,8.81,11.86,90899.64,906.75,139.57,16.44,-89.-81
1078786,3,14728,37,0.35,9.98,0.1,0.4,0.-10,0.-10,8.81,11.85,90906.12,906.27,139.57,16.44,-89.-81
1078823,3,14765,37,0.42,9.99,0.1,0.5,0.-10,0.-10,8.87,11.85,90900.68,906.27,134.4,10.11,-88.-25
1078860,3,14802,37,0.39,10.0,0.2,0.4,0.-9,0.-9,8.81,11.86,90897.44,907.15,134.4,10.11,-88.-25
1078897,3,14839,37,0.33,9.96,0.-4,0.4,0.-10,0.-9,8.87,11.86,90902.88,907.25,128.72,4.20,-86.-6
1078937,3,14879,40,0.43,9.98,0.3,0.4,0.-9,0.-9,8.87,11.85,90902.88,906.55,128.72,4.20,-86.-6
1078979,3,14921,42,0.35,10.1,0.4,0.4,0.-9,0.-9,8.87,11.85,90901.83,906.55,123.13,-1.-32,-83.-41
1079017,3,14959,38,0.43,9.99,0.1,0.4,0.-9,0.-9,8.87,11.86,90899.64,906.55,123.13,-1.-32,-83.-41
1079053,3,14995,36,0.36,10.0,0.5,0.5,0.-10,0.-10,8.87,11.86,90900.68,906.56,116.79,-7.0,-80.-16
1079090,3,15032,37,0.38,10.2,0.3,0.4,0.-9,0.-9,8.87,11.86,90898.50,906.56,116.79,-7.0,-80.-16
1079130,3,15072,40,0.43,9.99,0.-1,0.5,0.-9,0.-10,8.81,11.87,90897.35,906.76,110.12,-12.-9,-76.-31
1079167,3,15109,37,0.37,10.0,0.1,0.4,0.-9,0.-9,8.87,11.86,90906.12,906.36,110.12,-12.-9,-76.-31
1079204,3,15146,37,0.39,10.1,0.2,0.5,0.-9,0.-9,8.81,11.86,90902.78,906.27,103.23,-16.-65,-71.-92
1079241,3,15183,37,0.40,10.0,0.1,0.4,0.-9,0.-10,8.75,11.87,90902.78,906.36,103.23,-16.-65,-71.-92
1079278,3,15220,37,0.39,10.1,0.0,0.5,0.-9,0.-10,8.81,11.87,90895.25,906.46,95.64,-20.-60,-67.-1
1079330,3,15272,52,0.39,10.2,0.2,0.4,0.-9,0.-9,8.81,11.86,90897.44,906.55,95.64,-20.-60,-67.-1
1079367,3,15309,37,0.40,9.78,0.3,0.4,0.-9,0.-9,8.81,11.86,90890.96,906.66,88.12,-23.-53,-61.-66
1079404,3,15346,37,0.42,10.1,0.0,0.4,0.-9,0.-9,8.87,11.86,90899.64,906.26,88.12,-23.-53,-61.-66
1079441,3,15383,37,0.38,10.4,0.2,0.4,0.-9,0.-9,8.81,11.86,90901.83,906.86,79.70,-26.0,-55.-25
1079493,3,15435,52,0.37,9.98,0.-1,0.4,0.-9,0.-10,8.81,11.86,90898.69,906.25,79.70,-26.0,-55.-25
1079530,3,15472,37,0.39,10.0,0.-1,0.4,0.-9,0.-9,8.81,11.85,90896.50,906.65,71.21,-27.-55,-48.-96
1079570,3,15512,40,0.36,10.1,0.5,0.4,0.-10,0.-9,8.81,11.85,90899.64,906.46,71.21,-27.-55,-48.-96
