millis(),Current_state,Calculated_flight_time,Time_since_last_log,IMU_accel_X,IMU_accel_Y,IMU_accel_Z,IMU_mag_X,IMU_mag_Y,IMU_mag_Z,IMU_gyro_X,IMU_gyro_Y,IMU_gyro_Z,IMU_temp,Raw_IMU_accel_X,Raw_IMU_accel_Y,Raw_IMU_accel_Z,Raw_IMU_mag_X,Raw_IMU_mag_Y,Raw_IMU_mag_Z,Raw_IMU_gyro_X,Raw_IMU_gyro_Y,Raw_IMU_gyro_Z,Raw_IMU_temp,BARO_temp,BARO_press,BARO_alt,Raw_BARO_temp,Raw_BARO_press,Raw_BARO_alt,Velocity_lastUpdate,Velocity_lastZAccel,Velocity_lastAlt,Velocity_inte,Velocity_diff,Velocity_est,Est_apogee,Target_air_brake_angle,Air_brake_angle,Air_brake_error,Battery_voltage,Z_accel_times_burnoutMass
4317,2,4317,4317,0.749,0.768,0.225,37.3,19.979,52.505,0.30,0.23,0.79,-395.0,-1.55,0.825,0.68,37.65,19.906,52.586,0.114,0.296,0.3,-395.0,14.410,92232.867,785.835,14.413,92232.265,786.425,4317,0.225,786.425,0.0,0.0,0.0,0.0,0.0,0.0,0.0,4.47,0.135
4366,2,4366,49,0.970,0.694,0.367,37.193,19.883,52.405,0.15,0.46,0.113,-395.0,-1.485,1.177,0.650,37.883,19.409,52.206,0.17,0.23,0.228,-395.0,14.414,92233.23,785.698,14.423,92232.125,785.536,4366,0.367,785.536,-14522.447,-18.137,3.193,0.0,0.0,0.0,0.0,4.47,0.221
4408,2,4408,42,0.511,0.440,0.891,37.135,20.546,52.98,0.424,0.349,0.21,-395.0,0.696,-4.651,-3.169,37.35,23.253,51.169,2.60,1.505,0.211,-395.0,14.421,92233.117,785.870,14.436,92234.117,785.753,4408,0.891,785.753,-40959.660,5.166,1.865,0.0,0.0,0.0,0.0,4.54,0.537
4444,2,4444,36,0.318,0.875,0.974,36.936,21.370,51.794,0.392,0.291,0.1,-395.0,0.86,-1.679,0.994,36.173,24.57,50.993,0.90,0.138,0.68,-395.0,14.426,92233.218,785.861,14.441,92235.187,785.671,4444,0.974,785.671,-74551.500,-2.290,2.73,0.0,0.0,0.0,0.0,4.60,0.587
4486,2,4486,42,0.681,1.989,-1.263,36.957,22.43,51.560,0.204,0.200,0.53,-395.0,-1.651,14.277,-1.432,36.626,23.589,50.847,0.818,0.90,0.185,-395.0,14.434,92231.921,785.937,14.455,92225.921,786.298,4486,-1.263,786.298,-121550.718,14.947,1.690,0.0,0.0,0.0,0.0,4.54,0.761
4523,2,4523,37,0.779,1.961,0.558,37.3,22.698,51.31,0.295,0.335,0.33,-395.0,-1.543,0.681,3.455,37.299,23.180,49.941,0.340,0.377,0.106,-395.0,14.443,92232.23,786.12,14.459,92232.757,786.804,4523,0.558,786.804,-155252.296,13.653,1.709,0.0,0.0,0.0,0.0,4.60,0.336
4566,2,4566,43,0.670,1.880,0.480,36.731,23.338,50.923,0.296,0.333,0.24,-395.0,0.940,0.775,0.262,36.524,22.610,51.666,0.12,0.11,0.60,-395.0,14.452,92231.640,786.64,14.469,92230.195,785.793,4566,0.480,785.793,-177596.250,-23.509,4.393,0.0,0.0,0.0,0.0,4.54,0.289
4602,2,4602,36,-1.108,2.911,0.2,36.503,23.139,50.914,0.113,0.27,0.3,-395.0,-1.493,0.502,0.750,35.895,22.259,51.125,0.14,0.25,0.69,-395.0,14.458,92231.335,786.216,14.469,92232.617,786.516,4602,0.2,786.516,-186198.406,20.92,1.623,0.0,0.0,0.0,0.0,4.60,0.1
4644,2,4644,42,-1.92,4.232,0.359,36.635,22.759,51.2,0.207,0.14,0.34,-395.0,0.165,4.924,0.785,36.831,22.157,51.432,0.560,0.344,0.121,-395.0,14.465,92230.828,786.364,14.473,92232.617,786.407,4644,0.359,786.407,-178596.750,-2.596,2.84,0.0,0.0,0.0,0.0,4.60,0.216
4680,2,4680,36,-2.304,0.143,1.415,36.568,22.519,51.90,0.59,0.115,0.129,-395.0,-7.709,-6.166,3.850,36.290,22.391,51.286,0.517,0.560,0.291,-395.0,14.469,92232.796,786.265,14.478,92235.820,785.805,4680,1.415,785.805,-146652.46,-16.715,3.5,0.0,0.0,0.0,0.0,4.60,0.852
4723,2,4723,43,-2.236,0.50,0.822,36.24,22.437,51.385,0.91,0.581,0.231,-395.0,-1.205,0.215,-7.735,34.580,22.771,51.417,0.497,2.703,0.613,-395.0,14.472,92232.984,786.125,14.473,92233.687,786.106,4723,0.822,786.106,-133899.750,7.3,1.826,0.0,0.0,0.0,0.0,4.54,0.495
4759,2,4759,36,-1.760,0.122,-1.12,34.755,22.636,51.341,0.112,0.812,0.253,-395.0,1.442,1.134,-1.210,30.181,23.604,51.446,0.92,1.170,0.171,-395.0,14.474,92235.234,786.191,14.478,92241.445,786.119,4759,-1.12,786.119,-166923.46,0.345,1.989,0.0,0.0,0.0,0.0,4.41,0.609
4807,2,4807,48,-1.363,0.195,0.951,33.311,23.86,51.292,0.102,0.857,0.237,-395.0,0.488,0.868,0.449,28.675,24.510,50.876,0.32,0.198,0.12,-395.0,14.477,92234.296,785.907,14.482,92227.914,785.96,4807,0.951,785.96,-214055.218,-21.317,3.774,0.0,0.0,0.0,0.0,4.47,0.573
4843,2,4843,36,-1.124,0.519,-1.217,31.508,23.618,51.242,0.219,0.953,0.253,-395.0,1.363,1.349,0.542,27.813,24.817,51.183,0.22,0.131,0.203,-395.0,14.478,92233.359,785.909,14.478,92227.914,786.420,4843,-1.217,786.420,-253099.828,36.788,1.475,0.0,0.0,0.0,0.0,4.41,0.733
4913,2,4913,70,0.473,1.26,-2.117,29.649,24.142,51.46,0.129,0.869,0.220,-395.0,0.279,1.564,0.650,26.995,25.7,50.306,0.67,0.143,0.127,-395.0,14.479,92231.132,785.969,14.482,92224.710,786.106,4913,-2.117,786.106,-369822.312,-4.479,2.155,0.0,0.0,0.0,0.0,4.41,-1.275
4949,2,4949,36,1.263,0.664,-1.58,28.140,24.612,50.800,0.103,0.521,0.154,-395.0,2.742,-1.593,-2.437,27.38,25.124,50.190,0.367,0.961,0.283,-395.0,14.477,92230.7,786.10,14.464,92228.54,786.311,4949,-1.58,786.311,-426982.500,5.681,1.854,0.0,0.0,0.0,0.0,4.41,0.637
4992,2,4992,43,0.515,0.882,0.944,27.471,25.51,50.494,0.52,0.286,0.270,-395.0,-2.297,2.225,0.643,26.834,25.796,49.912,0.164,0.0,0.751,-395.0,14.476,92227.296,786.68,14.473,92227.914,786.407,4992,0.944,786.407,-470038.500,2.234,1.937,0.0,0.0,0.0,0.0,4.47,0.569
5028,2,5028,36,0.766,0.681,0.990,27.68,25.299,50.397,0.61,0.246,0.273,-395.0,1.744,0.136,0.678,26.658,25.752,50.394,0.11,0.3,0.0,-395.0,14.474,92227.945,786.376,14.473,92231.117,786.638,5028,0.990,786.638,-504870.781,6.405,1.838,0.0,0.0,0.0,0.0,4.54,0.596
5070,2,5070,42,0.928,0.433,0.857,26.989,25.340,50.333,0.37,0.131,0.255,-395.0,2.175,0.107,0.124,27.418,25.21,50.862,0.93,0.443,0.112,-395.0,14.474,92228.609,786.376,14.478,92231.257,786.420,5070,0.857,786.420,-543669.312,-5.180,2.184,0.0,0.0,0.0,0.0,4.54,0.516
5106,2,5106,36,0.683,0.203,-1.118,27.325,25.428,50.494,0.61,0.153,0.241,-395.0,0.947,0.416,-1.956,28.675,25.445,51.110,0.186,-1.281,0.59,-395.0,14.474,92229.437,786.280,14.482,92228.835,785.627,5106,-1.118,785.627,-579225.187,-22.35,3.950,0.0,0.0,0.0,0.0,4.60,0.673
5149,2,5149,43,0.519,0.908,0.252,27.860,25.679,50.651,0.136,0.331,0.180,-395.0,1.923,1.931,1.890,29.713,26.381,50.979,0.620,0.69,0.23,-395.0,14.479,92229.593,786.305,14.487,92228.835,786.433,5149,0.252,786.433,-608699.500,18.751,1.639,0.0,0.0,0.0,0.0,4.60,0.152
5185,2,5185,36,1.105,0.468,0.61,28.289,25.741,50.850,0.135,0.279,0.213,-395.0,0.631,0.21,0.311,28.982,26.103,50.906,0.163,0.262,0.918,-395.0,14.481,92229.109,786.370,14.487,92225.484,786.734,5185,0.61,786.734,-614355.625,8.365,1.799,0.0,0.0,0.0,0.0,4.60,0.37
5227,2,5227,42,0.541,0.74,0.676,28.745,26.62,50.888,0.126,0.283,0.212,-395.0,-1.76,-2.849,3.10,28.938,27.360,50.584,0.60,0.25,0.5,-395.0,14.484,92228.406,786.269,14.487,92227.625,786.133,5227,0.676,786.133,-601447.625,-14.315,2.752,0.0,0.0,0.0,0.0,4.54,0.407
5263,2,5263,36,0.710,0.113,0.772,29.52,26.480,50.888,0.103,0.188,0.188,-395.0,3.22,1.48,0.605,28.953,27.111,50.862,0.18,0.33,0.5,-395.0,14.487,92227.476,786.253,14.492,92226.554,786.337,5263,0.772,786.337,-575369.187,5.667,1.854,0.0,0.0,0.0,0.0,4.41,0.465
5306,2,5306,43,0.841,0.94,1.150,29.137,26.822,50.771,0.138,0.70,0.181,-395.0,0.294,0.624,0.68,29.99,27.155,50.526,0.12,0.13,0.21,-395.0,14.489,92227.468,786.395,14.492,92228.835,786.337,5306,1.150,786.337,-534033.687,0.0,2.0,0.0,0.0,0.0,0.0,4.54,0.692
5342,2,5342,36,0.580,0.367,0.979,29.102,27.24,50.666,0.27,0.62,0.195,-395.0,0.617,0.567,1.36,29.538,27.389,50.453,0.67,0.29,0.49,-395.0,14.489,92229.750,786.272,14.487,92240.234,785.819,5342,0.979,785.819,-495705.906,-14.378,2.758,0.0,0.0,0.0,0.0,4.41,0.589
5385,2,5385,43,0.473,-5.782,2.325,28.994,27.275,50.613,0.118,0.295,0.155,-395.0,-4.637,-27.55,7.45,28.441,27.360,50.643,0.569,-1.527,0.718,-395.0,14.490,92230.875,786.253,14.492,92231.117,786.638,5385,2.325,786.638,-424645.93,19.28,1.636,0.0,0.0,0.0,0.0,4.47,1.401
5432,2,5432,47,0.749,-4.420,1.893,29.14,27.187,50.777,0.97,0.238,0.145,-395.0,5.39,3.962,0.850,29.41,26.921,51.403,0.46,0.255,0.57,-395.0,14.491,92232.265,786.313,14.492,92234.609,786.433,5432,1.893,786.433,-325482.343,-4.351,2.150,0.0,0.0,0.0,0.0,4.60,1.140
5475,2,5475,43,2.163,-9.26,1.590,29.307,27.199,50.891,0.183,0.262,0.155,-395.0,10.92,-21.980,0.908,30.415,27.170,51.432,0.447,0.84,0.45,-395.0,14.488,92232.757,786.351,14.478,92228.976,786.529,5475,1.590,786.529,-250563.93,2.232,1.937,0.0,0.0,0.0,0.0,4.60,0.958
5512,2,5512,37,2.121,-9.263,1.676,29.529,27.129,51.99,0.175,0.215,0.153,-395.0,0.502,-1.808,0.361,30.210,26.805,51.563,0.23,0.245,0.12,-395.0,14.486,92233.703,786.349,14.482,92233.539,786.324,5512,1.676,786.324,-190108.296,-5.542,2.199,0.0,0.0,0.0,0.0,4.60,1.10
5554,2,5554,42,1.941,-9.277,1.388,29.555,26.939,51.414,0.186,0.191,0.144,-395.0,0.287,0.495,0.406,29.669,26.439,52.31,0.14,0.151,0.3,-395.0,14.486,92229.859,786.512,14.487,92221.70,786.638,5554,1.388,786.638,-125735.15,7.466,1.817,0.0,0.0,0.0,0.0,4.60,0.836
5590,2,5590,36,2.242,-4.782,0.44,29.821,26.889,51.692,0.93,0.143,0.6,-395.0,-3.129,-4.579,0.325,29.771,27.111,52.31,0.104,0.146,0.28,-395.0,14.484,92229.164,786.491,14.482,92227.625,786.529,5590,0.44,786.529,-99940.820,-3.14,2.99,0.0,0.0,0.0,0.0,4.60,0.26
5634,2,5634,44,1.293,-5.524,0.21,29.976,26.968,51.750,0.108,0.103,0.17,-395.0,0.294,0.251,0.735,29.815,27.316,51.695,0.26,0.58,0.1,-395.0,14.484,92228.31,786.469,14.492,92228.976,786.324,5634,0.21,786.324,-98483.750,-4.660,2.162,0.0,0.0,0.0,0.0,4.60,0.13
5670,2,5670,36,0.679,-1.92,0.114,29.774,27.21,51.786,0.22,0.130,0.5,-395.0,0.229,0.179,0.442,29.406,27.433,51.607,0.19,0.49,0.16,-395.0,14.485,92228.7,786.370,14.482,92228.835,786.36,5670,0.114,786.36,-96025.328,-7.988,2.315,0.0,0.0,0.0,0.0,4.47,0.69
5712,2,5712,42,0.625,0.618,0.22,29.634,27.155,51.733,0.28,0.84,0.3,-395.0,0.236,0.559,0.327,29.508,27.477,51.300,0.8,0.16,0.2,-395.0,14.485,92226.851,786.474,14.482,92227.765,786.843,5712,0.22,786.843,-94091.796,19.198,1.634,0.0,0.0,0.0,0.0,4.60,0.13
5748,2,5748,36,0.545,0.696,0.12,29.570,27.427,51.631,0.25,0.62,0.6,-395.0,0.114,0.107,0.355,29.348,27.798,51.520,0.29,0.38,0.20,-395.0,14.486,92227.953,786.534,14.492,92226.554,786.938,5748,0.12,786.938,-94734.468,2.653,1.926,0.0,0.0,0.0,0.0,4.60,0.7
5791,2,5791,43,0.126,0.274,0.137,29.330,27.480,51.537,0.2,0.31,0.0,-395.0,0.229,0.272,0.298,28.573,27.375,51.563,0.35,0.3,0.3,-395.0,14.488,92227.523,786.414,14.492,92225.484,785.928,5791,0.137,785.928,-97971.500,-23.497,4.388,0.0,0.0,0.0,0.0,4.60,0.82
5827,2,5827,36,0.55,0.192,0.332,29.318,27.509,51.560,0.15,0.22,0.0,-395.0,0.57,0.157,0.241,29.757,27.462,51.812,0.40,0.12,0.3,-395.0,14.488,92227.953,786.438,14.492,92231.117,786.447,5827,0.332,786.447,-106444.445,14.409,1.698,0.0,0.0,0.0,0.0,4.60,0.200
5869,2,5869,42,0.40,0.137,0.298,29.321,27.430,51.578,0.20,0.13,0.4,-395.0,0.150,0.93,0.269,29.421,27.38,51.695,0.6,0.4,0.5,-395.0,14.491,92227.953,786.460,14.496,92228.835,786.145,5869,0.298,786.145,-119706.304,-7.170,2.274,0.0,0.0,0.0,0.0,4.54,0.179
5905,2,5905,36,0.58,0.27,0.261,29.190,27.281,51.698,0.21,0.13,0.3,-395.0,0.143,0.7,0.140,28.851,26.731,51.900,0.0,0.15,0.2,-395.0,14.492,92228.164,786.378,14.487,92228.835,786.433,5905,0.261,786.433,-129781.484,7.988,1.806,0.0,0.0,0.0,0.0,4.66,0.157
5977,2,5977,72,0.90,0.155,0.255,29.219,27.129,51.777,0.17,0.3,0.46,-395.0,0.272,0.746,0.327,29.494,27.38,51.914,0.6,0.9,0.228,-395.0,14.492,92227.562,786.231,14.496,92223.500,786.202,5977,0.255,786.202,-148381.296,-3.211,2.106,0.0,0.0,0.0,0.0,4.60,0.153
6013,2,6013,36,0.401,0.226,0.304,29.529,27.114,51.838,0.10,0.3,0.115,-395.0,1.787,0.631,0.542,30.122,27.301,51.870,0.2,0.41,0.350,-395.0,14.489,92228.257,786.310,14.473,92228.976,786.324,6013,0.304,786.324,-158456.484,3.392,1.907,0.0,0.0,0.0,0.0,4.73,0.183
6060,2,6060,47,0.265,0.106,0.347,29.684,27.30,51.756,0.6,0.15,0.147,-395.0,0.739,0.760,0.456,30.532,27.38,51.403,0.48,0.109,0.160,-395.0,14.487,92226.921,786.307,14.482,92224.421,786.433,6060,0.347,786.433,-173769.468,2.320,1.934,0.0,0.0,0.0,0.0,4.60,0.209
6096,2,6096,36,0.492,0.182,0.381,29.868,27.50,51.674,0.1,0.39,0.171,-395.0,1.284,0.287,0.442,30.342,27.141,51.286,0.50,0.121,0.115,-395.0,14.484,92226.703,786.387,14.482,92227.765,786.542,6096,0.381,786.542,-186894.62,3.14,1.917,0.0,0.0,0.0,0.0,4.60,0.229
6144,2,6144,48,0.472,0.142,0.384,30.143,27.185,51.660,0.2,0.30,0.195,-395.0,0.244,0.193,0.154,30.225,27.404,51.826,0.21,0.29,0.122,-395.0,14.484,92227.859,786.346,14.487,92234.609,786.228,6144,0.384,786.228,-205289.390,-6.534,2.243,0.0,0.0,0.0,0.0,4.60,0.231
6180,2,6180,36,0.353,0.7,0.417,30.257,27.179,51.610,0.5,0.22,0.207,-395.0,0.323,0.0,0.492,30.64,27.9,51.666,0.43,0.49,0.289,-395.0,14.482,92228.921,786.392,14.487,92228.835,786.433,6180,0.417,786.433,-219731.953,5.698,1.854,0.0,0.0,0.0,0.0,4.54,0.251
6224,2,6224,44,-1.98,0.338,0.745,30.374,27.158,51.610,0.0,0.8,0.155,-395.0,-5.469,2.361,-2.179,30.707,27.199,51.870,0.19,0.194,0.89,-395.0,14.485,92228.671,786.332,14.487,92227.765,786.23,6224,0.745,786.23,-245311.859,-9.323,2.388,0.0,0.0,0.0,0.0,4.60,0.448
6260,2,6260,36,0.989,2.490,0.238,30.458,27.220,51.666,0.9,0.16,0.145,-395.0,0.193,9.999,2.77,30.955,27.345,51.680,0.4,0.67,0.109,-395.0,14.487,92229.562,786.414,14.492,92228.835,786.843,6260,0.238,786.843,-263010.562,22.774,1.594,0.0,0.0,0.0,0.0,4.66,0.143
6302,2,6302,42,-2.106,2.801,0.620,30.575,27.304,51.739,0.6,0.25,0.134,-395.0,-4.299,1.837,3.850,30.926,27.565,51.651,0.32,0.78,0.62,-395.0,14.489,92230.234,786.414,14.492,92231.117,786.542,6302,0.620,786.542,-254986.812,-7.170,2.274,0.0,0.0,0.0,0.0,4.60,0.373
6338,2,6338,36,-1.864,2.726,0.554,30.821,27.529,51.528,0.10,0.4,0.130,-395.0,0.961,0.567,0.485,31.452,28.529,50.774,0.2,0.76,0.100,-395.0,14.491,92229.531,786.356,14.496,92231.117,785.940,6338,0.554,785.940,-233844.265,-16.701,3.4,0.0,0.0,0.0,0.0,4.60,0.333
6381,2,6381,43,-1.550,2.381,0.674,31.107,27.582,51.540,0.1,0.7,0.72,-395.0,1.249,-1.722,0.110,31.496,27.272,51.724,0.16,0.10,0.1,-395.0,14.492,92228.835,786.419,14.496,92225.343,786.747,6381,0.674,786.747,-207417.703,18.751,1.639,0.0,0.0,0.0,0.0,4.60,0.406
6418,2,6418,37,0.420,1.952,1.86,31.245,27.831,51.444,0.1,0.50,0.54,-395.0,0.179,0.215,0.119,31.394,28.441,51.388,0.3,0.19,0.3,-395.0,14.495,92227.898,786.443,14.501,92223.62,786.145,6418,1.86,786.145,-174824.687,-16.248,2.951,0.0,0.0,0.0,0.0,4.60,0.654
6488,2,6488,70,0.752,0.103,0.315,31.178,27.866,51.482,0.16,0.24,0.33,-395.0,-1.852,0.753,-1.777,30.619,27.521,51.870,0.74,0.62,0.5,-395.0,14.497,92229.296,786.318,14.501,92235.820,786.215,6488,0.315,786.215,-125724.554,1.0,1.970,0.0,0.0,0.0,0.0,4.54,0.190
6524,2,6524,36,0.391,0.221,0.528,31.216,27.755,51.499,0.18,0.19,0.18,-395.0,1.421,0.215,0.370,31.116,27.9,51.739,0.41,0.54,0.12,-395.0,14.495,92229.562,786.296,14.482,92232.468,786.433,6524,0.528,786.433,-129545.851,6.44,1.846,0.0,0.0,0.0,0.0,4.54,0.318
6566,2,6566,42,0.96,0.658,0.759,30.970,27.579,51.581,0.0,0.47,0.118,-395.0,-1.478,3.833,-1.640,30.225,27.652,51.183,0.97,0.212,0.585,-395.0,14.493,92230.718,786.291,14.487,92236.890,785.914,6566,0.759,785.914,-156586.46,-12.350,2.588,0.0,0.0,0.0,0.0,4.60,0.457
6602,2,6602,36,0.202,0.536,0.749,30.467,27.413,51.654,0.27,0.55,0.283,-395.0,0.717,-2.333,0.160,28.982,26.439,52.90,0.153,0.51,0.823,-395.0,14.492,92231.656,786.106,14.487,92230.46,785.819,6602,0.749,785.819,-183743.109,-2.638,2.85,0.0,0.0,0.0,0.0,4.54,0.451
6646,2,6646,44,0.269,0.759,0.780,29.883,27.27,51.841,0.31,0.102,0.303,-395.0,2.541,1.328,0.276,28.471,26.512,52.323,0.21,0.254,0.101,-395.0,14.489,92232.382,786.141,14.487,92226.703,786.324,6646,0.780,786.324,-217408.859,11.469,1.744,0.0,0.0,0.0,0.0,4.54,0.470
6682,2,6682,36,1.454,1.280,0.515,29.505,26.989,51.938,0.45,0.125,0.314,-395.0,4.70,3.359,0.449,28.734,27.331,52.353,0.3,0.53,0.48,-395.0,14.486,92231.656,786.226,14.487,92232.179,786.638,6682,0.515,786.638,-240741.234,8.711,1.792,0.0,0.0,0.0,0.0,4.54,0.310
6724,2,6724,42,1.513,1.563,0.310,29.263,27.38,51.920,0.54,0.76,0.203,-395.0,1.715,1.629,0.656,29.903,27.258,51.651,0.3,0.187,0.538,-395.0,14.488,92231.835,786.84,14.492,92233.398,785.723,6724,0.310,785.723,-258073.281,-21.780,3.885,0.0,0.0,0.0,0.0,4.60,0.186
6761,2,6761,37,0.63,0.73,0.23,29.333,26.986,52.22,0.64,0.16,0.152,-395.0,-9.360,-4.350,0.24,30.575,27.389,51.695,0.145,0.255,-1.194,-395.0,14.488,92230.898,786.127,14.487,92232.179,786.133,6761,0.23,786.133,-263381.875,11.85,1.750,0.0,0.0,0.0,0.0,4.54,0.13
6803,2,6803,42,0.650,-1.55,0.58,29.888,27.269,52.8,0.25,0.8,0.488,-395.0,4.285,-7.243,0.340,31.759,27.857,52.16,0.295,0.178,0.861,-395.0,14.490,92229.984,786.231,14.496,92225.484,786.337,6803,0.58,786.337,-261659.406,4.858,1.872,0.0,0.0,0.0,0.0,4.41,0.35
6839,2,6839,36,0.211,-1.223,0.437,30.660,27.167,52.72,0.93,0.89,0.575,-395.0,-1.765,0.488,-2.760,32.329,26.1,52.645,0.316,0.234,0.332,-395.0,14.491,92230.171,786.173,14.492,92227.625,786.36,6839,0.437,786.36,-268478.437,-8.349,2.334,0.0,0.0,0.0,0.0,4.54,0.263
6882,2,6882,43,0.887,-1.473,0.508,31.558,26.881,52.84,0.69,0.126,0.614,-395.0,0.689,2.110,0.801,33.221,25.898,52.411,0.117,0.133,0.145,-395.0,14.492,92229.484,786.113,14.496,92228.687,786.337,6882,0.508,786.337,-288816.31,6.990,1.826,0.0,0.0,0.0,0.0,4.60,0.306
6918,2,6918,36,0.859,-1.900,0.337,32.145,26.755,52.259,0.15,0.56,0.446,-395.0,1.852,0.509,1.510,32.841,26.629,52.528,0.270,0.164,0.303,-395.0,14.492,92228.328,786.195,14.492,92227.625,786.133,6918,0.337,786.133,-304033.875,-5.667,2.204,0.0,0.0,0.0,0.0,4.54,0.203
6988,2,6988,70,1.254,0.610,0.526,32.662,26.582,52.373,0.37,0.1,0.198,-395.0,1.213,2.103,0.923,33.162,26.527,52.265,0.37,0.18,0.44,-395.0,14.492,92227.15,786.212,14.487,92225.632,786.215,6988,0.526,786.215,-334277.343,1.178,1.965,0.0,0.0,0.0,0.0,4.54,0.317
7024,2,7024,36,0.379,1.348,0.720,32.785,26.337,52.531,0.15,0.34,0.24,-395.0,0.93,2.548,0.628,32.373,26.629,52.806,0.30,0.12,0.7,-395.0,14.490,92226.585,786.269,14.482,92223.351,786.625,7024,0.720,786.625,-356731.62,11.364,1.745,0.0,0.0,0.0,0.0,4.47,0.434
7203,2,7203,179,0.822,1.290,0.235,32.654,26.492,52.475,0.76,0.23,0.42,-395.0,0.452,0.200,0.334,31.672,26.775,52.367,0.9,0.57,0.1,-395.0,14.488,92227.484,786.333,14.482,92232.125,786.355,7203,0.235,786.355,-442291.562,-1.506,2.47,0.0,0.0,0.0,0.0,4.60,0.141
7240,2,7240,37,0.716,0.857,0.144,32.402,26.749,52.481,0.50,0.52,0.73,-395.0,0.157,0.57,0.348,31.964,27.185,52.440,0.17,0.7,0.9,-395.0,14.475,92227.898,786.257,14.432,92230.765,785.958,7240,0.144,785.958,-449326.562,-10.719,2.473,0.0,0.0,0.0,0.0,4.54,0.87
7419,2,7419,179,0.399,1.56,0.584,32.426,26.746,52.446,0.4,0.22,0.14,-395.0,0.265,0.488,0.686,32.958,26.615,52.353,0.4,0.15,0.10,-395.0,14.467,92226.546,786.340,14.450,92220.867,786.547,7419,0.584,786.547,-514584.937,3.291,1.910,0.0,0.0,0.0,0.0,4.54,0.351
7563,2,7563,144,0.203,0.719,0.498,32.309,26.869,52.370,0.12,0.21,0.6,-395.0,0.236,0.416,0.492,32.578,27.141,51.885,0.1,0.13,0.4,-395.0,14.455,92227.203,786.284,14.427,92228.921,785.933,7563,0.498,785.933,-592512.312,-4.269,2.146,0.0,0.0,0.0,0.0,4.60,0.300
7605,2,7605,42,0.213,0.206,0.426,32.247,26.948,52.262,0.7,0.22,0.6,-395.0,0.43,0.14,0.269,32.66,27.24,52.265,0.2,0.18,0.5,-395.0,14.443,92226.898,786.150,14.423,92221.796,785.958,7605,0.426,785.958,-611924.687,0.607,1.982,0.0,0.0,0.0,0.0,4.60,0.256
7642,2,7642,37,0.130,0.215,0.452,32.323,27.18,52.192,0.6,0.19,0.6,-395.0,0.35,0.244,0.463,32.52,27.126,52.16,0.6,0.39,0.3,-395.0,14.435,92226.812,786.177,14.441,92231.695,786.489,7642,0.452,786.489,-628176.125,14.356,1.698,0.0,0.0,0.0,0.0,4.54,0.272
7684,2,7684,42,0.139,0.279,0.447,32.277,26.980,52.145,0.3,0.23,0.5,-395.0,0.200,0.265,0.327,31.730,26.995,52.206,0.0,0.30,0.5,-395.0,14.440,92226.62,786.245,14.459,92226.992,786.298,7684,0.447,786.298,-647075.937,-4.547,2.157,0.0,0.0,0.0,0.0,4.60,0.269
7720,2,7720,36,0.93,0.203,0.377,32.139,27.30,52.154,0.2,0.24,0.5,-395.0,0.35,0.107,0.334,32.271,26.863,52.396,0.3,0.19,0.7,-395.0,14.445,92227.710,786.261,14.473,92229.125,786.625,7720,0.377,786.625,-661932.0,9.58,1.786,0.0,0.0,0.0,0.0,4.60,0.227
7763,2,7763,43,0.44,0.107,0.231,31.970,26.974,52.221,0.3,0.27,0.5,-395.0,0.7,0.64,0.239,31.730,26.863,52.221,0.3,0.29,0.3,-395.0,14.455,92228.171,786.484,14.478,92231.257,787.48,7763,0.231,787.48,-675015.750,9.842,1.772,0.0,0.0,0.0,0.0,4.66,0.139
7800,2,7800,37,0.50,0.196,0.205,31.999,26.857,52.174,0.2,0.31,0.4,-395.0,0.14,0.430,0.140,32.212,26.439,52.31,0.1,0.35,0.0,-395.0,14.467,92229.125,786.639,14.482,92226.554,786.734,7800,0.205,786.734,-683086.625,-8.475,2.340,0.0,0.0,0.0,0.0,4.66,0.123
7841,2,7841,41,0.48,0.159,0.88,32.11,26.907,52.183,0.2,0.27,0.4,-395.0,0.28,0.57,0.117,32.110,27.375,52.60,0.4,0.21,0.3,-395.0,14.476,92228.101,786.568,14.487,92226.554,786.133,7841,0.88,786.133,-689116.250,-14.664,2.785,0.0,0.0,0.0,0.0,4.60,0.53
7877,2,7877,36,0.45,0.202,0.2,32.72,26.834,52.90,0.3,0.25,0.4,-395.0,0.186,0.480,0.103,32.37,26.629,51.739,0.6,0.18,0.5,-395.0,14.483,92228.460,786.657,14.496,92228.835,786.747,7877,0.2,786.747,-690766.750,17.47,1.661,0.0,0.0,0.0,0.0,4.60,0.1
7922,2,7922,45,0.0,0.159,0.11,32.98,26.767,52.16,0.2,0.27,0.3,-395.0,0.193,0.107,0.377,32.402,26.527,52.31,0.0,0.33,0.2,-395.0,14.487,92227.953,786.561,14.492,92226.554,786.145,7922,0.11,786.145,-691085.562,-13.359,2.668,0.0,0.0,0.0,0.0,4.60,0.6
7985,2,7985,63,0.45,0.254,0.126,32.291,26.699,51.891,0.3,0.27,0.3,-395.0,0.222,0.409,0.334,32.695,26.527,51.593,0.8,0.30,0.4,-395.0,14.492,92230.234,786.436,14.501,92242.656,786.420,7985,0.126,786.420,-695421.187,4.357,1.884,0.0,0.0,0.0,0.0,4.66,0.76
8027,2,8027,42,0.48,0.202,0.139,32.318,26.755,51.888,0.5,0.25,0.4,-395.0,0.0,0.172,0.205,32.344,26.717,52.16,0.6,0.21,0.3,-395.0,14.492,92230.929,786.376,14.487,92230.46,786.433,8027,0.139,786.433,-700994.937,0.310,1.990,0.0,0.0,0.0,0.0,4.60,0.83
8064,2,8064,37,0.63,0.239,0.208,32.326,26.600,51.940,0.4,0.27,0.6,-395.0,0.100,0.244,0.226,32.154,26.600,52.323,0.1,0.34,0.15,-395.0,14.492,92231.843,786.455,14.482,92231.117,786.529,8064,0.208,786.529,-707419.62,2.594,1.927,0.0,0.0,0.0,0.0,4.60,0.125
8106,2,8106,42,0.89,0.218,0.279,32.256,26.609,52.14,0.4,0.29,0.5,-395.0,0.315,0.373,0.255,31.686,26.673,52.104,0.5,0.25,0.0,-395.0,14.492,92232.515,786.474,14.501,92232.179,786.843,8106,0.279,786.843,-717665.937,7.468,1.816,0.0,0.0,0.0,0.0,4.60,0.168
8142,2,8142,36,0.126,0.318,0.276,32.166,26.714,51.961,0.3,0.21,0.6,-395.0,0.7,0.394,0.363,31.949,27.53,51.768,0.3,0.2,0.8,-395.0,14.492,92233.390,786.534,14.492,92230.968,786.447,8142,0.276,786.447,-727689.437,-11.3,2.492,0.0,0.0,0.0,0.0,4.60,0.166
8185,2,8185,43,0.74,0.291,0.276,32.192,26.822,51.955,0.5,0.24,0.6,-395.0,0.35,0.272,0.334,32.826,27.68,51.563,0.17,0.43,0.2,-395.0,14.492,92230.601,786.580,14.501,92228.687,786.651,8185,0.276,786.651,-739600.187,4.745,1.875,0.0,0.0,0.0,0.0,4.73,0.166
8221,2,8221,36,0.68,0.376,0.344,32.253,26.854,51.929,0.7,0.30,0.5,-395.0,0.28,0.595,0.542,32.651,26.878,51.885,0.14,0.52,0.2,-395.0,14.494,92230.789,786.627,14.496,92230.968,786.664,8221,0.344,786.664,-750786.562,0.376,1.988,0.0,0.0,0.0,0.0,4.60,0.207
8263,2,8263,42,0.150,0.225,0.350,32.332,26.857,51.788,0.7,0.32,0.3,-395.0,0.509,0.509,0.255,32.548,26.615,51.622,0.1,0.43,0.4,-395.0,14.500,92231.671,786.654,14.510,92235.531,786.664,8263,0.350,786.664,-765375.0,0.0,2.0,0.0,0.0,0.0,0.0,4.60,0.210
8299,2,8299,36,0.147,0.149,0.407,32.437,26.854,51.704,0.8,0.28,0.4,-395.0,0.301,0.7,0.542,32.212,26.658,51.680,0.10,0.2,0.5,-395.0,14.499,92230.726,786.656,14.496,92227.476,786.856,8299,0.407,786.856,-779016.437,5.320,1.862,0.0,0.0,0.0,0.0,4.73,0.245
8342,2,8342,43,0.134,0.173,0.308,32.487,26.805,51.680,0.9,0.29,0.3,-395.0,0.71,0.516,0.132,32.198,26.805,51.651,0.4,0.5,0.3,-395.0,14.503,92229.359,786.719,14.514,92224.132,786.760,8342,0.308,786.760,-794415.250,-2.221,2.71,0.0,0.0,0.0,0.0,4.60,0.185
8378,2,8378,36,0.86,0.180,0.295,32.318,26.726,51.721,0.5,0.27,0.3,-395.0,0.279,0.308,0.269,31.978,26.673,51.768,0.2,0.35,0.0,-395.0,14.505,92229.578,786.681,14.510,92229.757,786.459,8378,0.295,786.459,-805291.562,-8.365,2.335,0.0,0.0,0.0,0.0,4.73,0.178
8420,2,8420,42,0.190,0.139,0.298,32.206,26.685,51.765,0.3,0.32,0.1,-395.0,0.495,0.387,2.429,32.95,26.673,52.104,0.5,0.73,0.6,-395.0,14.508,92229.546,786.659,14.510,92230.828,786.555,8420,0.298,786.555,-805227.312,2.287,1.935,0.0,0.0,0.0,0.0,4.66,0.179
8457,2,8457,37,0.200,0.235,0.281,32.148,26.685,51.873,0.4,0.27,0.1,-395.0,0.559,0.28,0.341,32.256,26.615,52.163,0.2,0.21,0.4,-395.0,14.508,92229.54,786.599,14.510,92233.109,786.363,8457,0.281,786.363,-794493.437,-5.191,2.184,0.0,0.0,0.0,0.0,4.60,0.169
8512,2,8512,55,0.111,0.284,0.305,32.168,26.670,51.897,0.6,0.25,0.1,-395.0,0.143,0.236,0.420,32.315,26.585,51.797,0.22,0.10,0.3,-395.0,14.512,92228.851,786.476,14.514,92226.414,786.241,8512,0.305,786.241,-778340.312,-2.210,2.71,0.0,0.0,0.0,0.0,4.60,0.184
8548,2,8548,36,0.54,0.137,0.211,32.130,26.731,51.905,0.2,0.37,0.2,-395.0,0.358,0.215,0.341,32.8,27.111,51.695,0.14,0.65,0.7,-395.0,14.509,92231.101,786.416,14.501,92235.382,786.459,8548,0.211,786.459,-769033.625,6.44,1.846,0.0,0.0,0.0,0.0,4.54,0.127
8591,2,8591,43,0.274,0.310,0.166,31.970,26.708,51.967,0.4,0.7,0.2,-395.0,0.818,1.170,0.492,31.175,26.556,52.75,0.6,0.112,0.2,-395.0,14.508,92231.101,786.435,14.505,92229.757,786.555,8591,0.166,786.555,-760911.437,2.234,1.937,0.0,0.0,0.0,0.0,4.60,0.100
8627,2,8627,36,0.83,0.354,0.386,32.107,26.693,52.40,0.4,0.11,0.8,-395.0,0.459,0.610,0.334,32.782,26.600,52.470,0.7,0.22,0.63,-395.0,14.508,92229.515,786.416,14.510,92222.921,786.459,8627,0.386,786.459,-764861.937,-2.668,2.87,0.0,0.0,0.0,0.0,4.47,0.232
8670,2,8670,43,0.37,0.548,0.364,32.104,26.691,52.104,0.10,0.4,0.12,-395.0,0.43,0.940,0.233,32.242,26.600,52.484,0.30,0.100,0.12,-395.0,14.506,92229.54,786.394,14.501,92230.828,786.254,8670,0.364,786.254,-781001.562,-4.769,2.166,0.0,0.0,0.0,0.0,4.60,0.219
8706,2,8706,36,0.14,0.499,0.343,32.195,26.655,52.119,0.0,0.34,0.15,-395.0,0.28,0.7,0.312,32.768,26.410,51.870,0.28,0.142,0.12,-395.0,14.505,92229.484,786.336,14.510,92228.546,785.953,8706,0.343,785.953,-793738.500,-8.349,2.334,0.0,0.0,0.0,0.0,4.54,0.206
8748,2,8748,42,0.610,0.565,0.37,32.282,26.609,52.116,0.8,0.40,0.17,-395.0,2.763,0.114,1.560,32.446,26.878,51.680,0.24,0.95,0.1,-395.0,14.508,92228.125,786.358,14.514,92228.546,786.568,8748,0.37,786.568,-800156.375,14.623,1.695,0.0,0.0,0.0,0.0,4.54,0.22
8784,2,8784,36,0.377,0.265,0.54,32.572,26.708,52.40,0.6,0.54,0.21,-395.0,0.344,0.330,0.406,32.622,27.53,51.695,0.2,0.44,0.15,-395.0,14.509,92226.750,786.319,14.510,92222.921,786.363,8784,0.54,786.363,-798499.62,-5.681,2.205,0.0,0.0,0.0,0.0,4.41,0.32
8827,2,8827,43,0.503,0.54,0.51,32.589,26.755,51.897,0.8,0.54,0.53,-395.0,0.172,0.445,0.348,32.870,26.834,51.753,0.18,0.23,0.227,-395.0,14.510,92226.750,786.401,14.514,92222.921,786.869,8827,0.51,786.869,-796210.812,11.761,1.739,0.0,0.0,0.0,0.0,4.41,0.31
8863,2,8863,36,0.539,0.25,0.27,32.636,26.883,51.742,0.6,0.30,0.52,-395.0,0.136,0.538,0.355,32.475,27.243,51.710,0.21,0.15,0.4,-395.0,14.512,92225.601,786.486,14.510,92225.54,786.677,8863,0.27,786.677,-794786.62,-5.337,2.190,0.0,0.0,0.0,0.0,4.60,0.16
8905,2,8905,42,0.551,0.48,0.13,32.548,27.21,51.672,0.20,0.10,0.54,-395.0,0.28,0.366,0.384,32.329,27.97,51.520,0.40,0.41,0.21,-395.0,14.511,92225.601,786.688,14.505,92228.546,786.964,8905,0.13,786.964,-793937.875,6.847,1.829,0.0,0.0,0.0,0.0,4.60,0.7
8942,2,8942,37,0.10,0.71,0.373,32.569,27.123,51.689,0.10,0.3,0.52,-395.0,0.43,0.488,0.370,32.548,27.389,51.768,0.26,0.22,0.4,-395.0,14.510,92224.937,786.688,14.510,92225.195,786.568,8942,0.373,786.568,-800601.0,-10.720,2.474,0.0,0.0,0.0,0.0,4.54,0.224
8984,2,8984,42,0.109,0.101,0.331,32.540,27.141,51.636,0.14,0.11,0.50,-395.0,0.251,0.538,0.198,32.475,27.141,51.432,0.19,0.33,0.3,-395.0,14.510,92225.835,786.811,14.510,92227.476,786.978,8984,0.331,786.978,-815400.437,9.768,1.773,0.0,0.0,0.0,0.0,4.54,0.199
9047,2,9047,63,0.97,0.285,0.358,32.566,27.223,51.636,0.9,0.18,0.4,-395.0,0.114,0.473,0.485,33.2,27.243,51.753,0.9,0.9,0.3,-395.0,14.508,92226.601,786.724,14.505,92226.703,786.433,9047,0.358,786.433,-837147.375,-8.647,2.350,0.0,0.0,0.0,0.0,4.41,0.216
9090,2,9090,43,0.74,0.178,0.347,32.662,27.348,51.581,0.7,0.26,0.2,-395.0,0.21,0.0,0.298,32.958,27.871,51.432,0.13,0.22,0.5,-395.0,14.505,92226.226,786.612,14.496,92223.210,786.119,9090,0.347,786.119,-852330.62,-7.307,2.280,0.0,0.0,0.0,0.0,4.60,0.209
9126,2,9126,36,0.93,0.216,0.376,32.598,27.404,51.531,0.6,0.20,0.3,-395.0,0.122,0.559,0.528,32.8,27.375,51.271,0.33,0.15,0.5,-395.0,14.503,92225.578,786.550,14.496,92225.343,786.651,9126,0.376,786.651,-865351.250,14.772,1.692,0.0,0.0,0.0,0.0,4.54,0.226
9163,2,9163,37,0.64,0.368,0.440,32.452,27.418,51.470,0.10,0.20,0.21,-395.0,0.186,0.272,0.693,31.818,27.462,51.461,0.7,0.21,0.97,-395.0,14.501,92227.406,786.525,14.496,92234.320,786.447,9163,0.440,786.447,-880460.562,-5.514,2.198,0.0,0.0,0.0,0.0,4.41,0.265
9205,2,9205,42,0.63,0.290,0.505,32.291,27.442,51.479,0.3,0.28,0.24,-395.0,0.387,0.143,0.521,31.672,27.258,51.476,0.10,0.74,0.11,-395.0,14.500,92225.648,786.605,14.505,92218.648,787.375,9205,0.505,787.375,-900325.187,22.93,1.601,0.0,0.0,0.0,0.0,4.60,0.304
9241,2,9241,36,0.68,0.254,0.469,31.826,27.471,51.525,0.4,0.52,0.42,-395.0,0.86,0.294,0.305,30.678,27.389,51.987,0.8,0.125,0.94,-395.0,14.499,92225.796,786.629,14.501,92227.476,786.555,9241,0.469,786.555,-917868.812,-22.761,4.152,0.0,0.0,0.0,0.0,4.41,0.282
9285,2,9285,44,0.518,0.228,0.591,31.531,27.377,51.537,0.8,0.23,0.73,-395.0,-2.225,0.129,0.908,31.482,27.404,51.490,0.46,0.120,0.160,-395.0,14.500,92225.984,786.695,14.501,92224.132,786.447,9285,0.591,786.447,-941206.187,-2.466,2.79,0.0,0.0,0.0,0.0,4.54,0.356
9321,2,9321,36,0.516,0.116,0.559,31.365,27.442,51.587,0.17,0.23,0.103,-395.0,0.129,0.0,0.370,31.175,27.696,51.520,0.14,0.14,0.151,-395.0,14.503,92225.742,786.697,14.510,92224.132,786.664,9321,0.559,786.664,-961928.437,6.44,1.846,0.0,0.0,0.0,0.0,4.60,0.337
9363,2,9363,42,0.370,0.146,0.505,31.245,27.377,51.543,0.22,0.15,0.73,-395.0,0.545,0.423,0.420,31.218,27.141,51.242,0.32,0.16,0.49,-395.0,14.503,92224.859,786.823,14.496,92229.906,787.74,9363,0.505,787.74,-984295.437,9.753,1.773,0.0,0.0,0.0,0.0,4.60,0.304
9399,2,9399,36,0.298,0.38,0.470,31.99,27.395,51.499,0.22,0.10,0.60,-395.0,0.28,0.394,0.348,30.941,27.345,51.256,0.9,0.54,0.57,-395.0,14.504,92227.960,786.580,14.514,92234.171,786.158,9399,0.470,786.158,-1001864.937,-25.427,5.216,0.0,0.0,0.0,0.0,4.54,0.283
9442,2,9442,43,0.439,0.27,0.449,31.198,27.410,51.289,0.3,0.34,0.51,-395.0,0.617,0.35,0.198,31.175,27.462,50.935,0.87,0.4,0.53,-395.0,14.505,92227.507,786.459,14.505,92225.195,785.953,9442,0.449,785.953,-1021646.875,-4.769,2.166,0.0,0.0,0.0,0.0,4.60,0.270
9479,2,9479,37,0.67,0.363,0.396,31.175,27.389,51.251,0.10,0.1,0.20,-395.0,0.308,1.823,0.643,31.365,27.301,51.300,0.23,0.60,0.2,-395.0,14.507,92228.609,786.503,14.510,92229.617,786.664,9479,0.396,786.664,-1037287.437,19.211,1.634,0.0,0.0,0.0,0.0,4.60,0.238
9521,2,9521,42,0.99,0.506,0.393,31.154,27.301,51.169,0.22,0.9,0.7,-395.0,0.287,0.717,0.355,31.72,27.258,51.110,0.42,0.56,0.12,-395.0,14.509,92229.242,786.525,14.519,92227.335,786.773,9521,0.393,786.773,-1053865.750,2.583,1.928,0.0,0.0,0.0,0.0,4.60,0.236
9585,2,9585,64,0.2,0.541,0.384,31.131,27.269,51.259,0.27,0.9,0.4,-395.0,0.35,0.595,0.377,31.102,26.980,51.695,0.7,0.20,0.9,-395.0,14.514,92229.703,786.358,14.519,92232.179,786.241,9585,0.384,786.241,-1078760.375,-8.300,2.331,0.0,0.0,0.0,0.0,4.60,0.231
9626,2,9626,41,0.155,0.581,0.315,31.151,27.269,51.327,0.30,0.23,0.29,-395.0,0.789,0.193,0.4,31.43,27.345,51.593,0.4,0.18,0.71,-395.0,14.513,92228.359,786.355,14.510,92227.476,786.145,9626,0.315,786.145,-1093119.125,-2.341,2.75,0.0,0.0,0.0,0.0,4.60,0.190
9662,2,9662,36,0.21,0.719,0.350,31.134,27.185,51.335,0.15,0.34,0.20,-395.0,0.50,0.653,0.370,31.87,27.38,50.979,0.16,0.58,0.5,-395.0,14.513,92228.609,786.435,14.505,92226.414,786.350,9662,0.350,786.350,-1105106.625,5.681,1.854,0.0,0.0,0.0,0.0,4.47,0.210
9705,2,9705,43,0.63,0.353,0.307,31.102,27.129,51.201,0.10,0.28,0.20,-395.0,0.100,0.7,0.427,31.204,27.24,50.628,0.4,0.27,0.4,-395.0,14.512,92228.148,786.435,14.505,92227.335,786.664,9705,0.307,786.664,-1119239.875,7.307,1.820,0.0,0.0,0.0,0.0,4.60,0.185
9741,2,9741,36,0.211,0.219,0.325,31.66,27.41,51.178,0.5,0.34,0.25,-395.0,0.452,0.50,0.449,30.897,26.819,50.993,0.21,0.89,0.38,-395.0,14.511,92229.273,786.435,14.514,92232.960,786.773,9741,0.325,786.773,-1130633.0,3.14,1.917,0.0,0.0,0.0,0.0,4.66,0.196
9783,2,9783,42,0.182,0.189,0.338,30.993,27.38,51.96,0.5,0.49,0.24,-395.0,0.179,0.445,0.442,30.736,26.965,51.286,0.9,0.54,0.4,-395.0,14.509,92228.62,786.500,14.510,92226.125,786.568,9783,0.338,786.568,-1144588.250,-4.884,2.171,0.0,0.0,0.0,0.0,4.60,0.204
9819,2,9819,36,0.41,0.229,0.421,31.66,26.968,50.958,0.5,0.47,0.10,-395.0,0.330,0.7,0.420,31.408,26.995,50.906,0.2,0.7,0.1,-395.0,14.510,92230.289,786.524,14.514,92238.585,786.267,9819,0.421,786.267,-1158281.375,-8.349,2.334,0.0,0.0,0.0,0.0,4.60,0.254
9862,2,9862,43,0.21,0.96,0.446,31.145,26.907,50.961,0.1,0.40,0.18,-395.0,0.50,0.14,0.492,31.482,26.731,50.993,0.1,0.26,0.46,-395.0,14.514,92231.359,786.447,14.524,92231.750,785.966,9862,0.446,785.966,-1176952.125,-7.3,2.265,0.0,0.0,0.0,0.0,4.66,0.268
9898,2,9898,36,0.5,0.127,0.472,30.993,26.863,51.81,0.6,0.47,0.29,-395.0,0.21,0.150,0.556,30.444,26.805,51.227,0.17,0.59,0.61,-395.0,14.515,92232.937,786.308,14.514,92235.242,785.966,9898,0.472,785.966,-1193487.875,0.0,2.0,0.0,0.0,0.0,0.0,4.66,0.284
9941,2,9941,43,0.133,0.176,0.430,31.8,26.854,51.5,0.3,0.33,0.22,-395.0,0.186,0.294,0.241,30.970,26.775,50.613,0.6,0.19,0.0,-395.0,14.517,92232.15,786.187,14.524,92228.398,786.171,9941,0.430,786.171,-1212899.375,4.770,1.874,0.0,0.0,0.0,0.0,4.54,0.259
9977,2,9977,36,0.71,0.94,0.419,31.166,26.834,50.952,0.4,0.28,0.22,-395.0,0.129,0.35,0.384,31.525,26.863,51.23,0.1,0.31,0.3,-395.0,14.520,92232.695,786.48,14.524,92229.468,785.871,9977,0.419,785.871,-1228194.750,-8.336,2.333,0.0,0.0,0.0,0.0,4.60,0.252
10020,2,10020,43,0.70,0.101,0.400,31.134,26.834,51.2,0.6,0.33,0.22,-395.0,0.323,0.43,0.327,31.248,26.995,51.154,0.13,0.29,0.0,-395.0,14.524,92231.539,786.111,14.533,92232.820,786.581,10020,0.400,786.581,-1245816.0,16.519,1.668,0.0,0.0,0.0,0.0,4.60,0.241
10056,2,10056,36,0.94,0.137,0.380,31.78,26.863,50.970,0.9,0.29,0.14,-395.0,0.71,0.165,0.391,31.204,26.878,50.833,0.14,0.7,0.8,-395.0,14.525,92232.203,786.114,14.528,92235.93,785.980,10056,0.380,785.980,-1259870.875,-16.701,3.4,0.0,0.0,0.0,0.0,4.54,0.229
10126,2,10126,70,0.50,0.142,0.367,31.96,26.965,51.31,0.9,0.25,0.4,-395.0,0.200,0.172,0.492,30.532,27.316,51.534,0.14,0.40,0.7,-395.0,14.528,92230.867,786.215,14.533,92228.546,786.472,10126,0.367,786.472,-1286044.125,7.31,1.825,0.0,0.0,0.0,0.0,4.60,0.221
10162,2,10162,36,0.35,0.126,0.414,31.218,27.59,51.125,0.8,0.29,0.4,-395.0,0.114,0.215,0.477,31.584,27.243,51.81,0.3,0.37,0.1,-395.0,14.526,92231.773,786.196,14.510,92232.960,786.75,10162,0.414,786.75,-1300124.875,-11.33,2.494,0.0,0.0,0.0,0.0,4.60,0.249
10205,2,10205,43,0.113,0.119,0.396,31.262,27.187,51.154,0.8,0.28,0.5,-395.0,0.258,0.0,0.291,31.745,27.506,51.169,0.2,0.27,0.7,-395.0,14.526,92230.437,786.275,14.524,92222.773,786.267,10205,0.396,786.267,-1317560.875,4.466,1.881,0.0,0.0,0.0,0.0,4.60,0.238
10241,2,10241,36,0.27,0.119,0.410,31.271,27.202,51.140,0.7,0.29,0.5,-395.0,0.107,0.43,0.399,31.292,27.68,51.81,0.9,0.32,0.2,-395.0,14.523,92228.195,786.316,14.519,92221.562,786.786,10241,0.410,786.786,-1332081.0,14.409,1.698,0.0,0.0,0.0,0.0,4.60,0.247
10284,2,10284,43,0.7,0.137,0.439,31.128,27.243,51.251,0.6,0.41,0.6,-395.0,0.100,0.258,0.535,30.488,27.82,51.388,0.5,0.67,0.11,-395.0,14.522,92227.484,786.540,14.524,92231.601,787.100,10284,0.439,787.100,-1350350.500,7.307,1.820,0.0,0.0,0.0,0.0,4.60,0.264
10320,2,10320,36,0.18,0.147,0.472,31.84,27.252,51.204,0.2,0.53,0.7,-395.0,0.258,0.222,0.657,30.312,27.360,51.300,0.1,0.103,0.13,-395.0,14.521,92226.546,786.501,14.528,92223.843,786.279,10320,0.472,786.279,-1366757.125,-22.789,4.161,0.0,0.0,0.0,0.0,4.60,0.284
10362,2,10362,42,0.2,0.113,0.476,30.955,27.266,51.254,0.1,0.63,0.8,-395.0,0.193,0.43,0.499,30.941,27.316,51.330,0.3,0.86,0.7,-395.0,14.527,92226.273,786.586,14.542,92231.601,786.499,10362,0.476,786.499,-1386682.0,5.218,1.864,0.0,0.0,0.0,0.0,4.60,0.287
10398,2,10398,36,0.114,0.167,0.549,30.812,27.120,51.163,0.0,0.69,0.12,-395.0,0.301,0.272,0.657,31.28,26.775,50.716,0.10,0.58,0.24,-395.0,14.529,92227.796,786.632,14.533,92230.390,786.499,10398,0.549,786.499,-1405156.0,0.0,2.0,0.0,0.0,0.0,0.0,4.54,0.331
10441,2,10441,43,0.35,0.153,0.535,30.684,27.167,51.163,0.5,0.74,0.12,-395.0,0.287,0.28,0.327,30.648,27.301,51.81,0.19,0.54,0.4,-395.0,14.531,92229.351,786.635,14.528,92229.328,786.798,10441,0.535,786.798,-1428487.750,6.966,1.827,0.0,0.0,0.0,0.0,4.66,0.322
10477,2,10477,36,0.55,0.129,0.546,30.748,27.100,51.84,0.8,0.65,0.10,-395.0,0.358,0.136,0.592,30.809,26.746,50.993,0.7,0.23,0.3,-395.0,14.532,92227.984,786.433,14.528,92224.765,786.88,10477,0.546,786.88,-1447969.625,-19.716,3.447,0.0,0.0,0.0,0.0,4.60,0.329
10520,2,10520,43,0.100,0.107,0.502,30.634,27.62,50.993,0.4,0.49,0.11,-395.0,0.35,0.114,0.434,29.742,27.170,50.847,0.19,0.23,0.18,-395.0,14.534,92229.320,786.414,14.537,92230.539,786.184,10520,0.502,786.184,-1470529.625,2.234,1.937,0.0,0.0,0.0,0.0,4.60,0.302
10556,2,10556,36,0.66,0.77,0.515,30.549,27.44,50.926,0.2,0.29,0.42,-395.0,0.21,0.107,0.564,30.517,27.228,50.993,0.7,0.12,0.161,-395.0,14.532,92229.328,786.414,14.533,92231.601,786.499,10556,0.515,786.499,-1488848.625,8.726,1.792,0.0,0.0,0.0,0.0,4.47,0.310
10626,2,10626,70,0.77,0.67,0.495,30.523,27.126,51.34,0.0,0.12,0.60,-395.0,0.244,0.222,0.556,30.897,27.185,51.256,0.1,0.24,0.115,-395.0,14.531,92229.164,786.324,14.528,92229.617,786.49,10626,0.495,786.49,-1524217.500,-6.426,2.238,0.0,0.0,0.0,0.0,4.54,0.298
10663,2,10663,37,0.28,0.133,0.546,30.605,27.132,51.66,0.9,0.14,0.96,-395.0,0.244,0.301,0.585,31.58,27.331,51.242,0.28,0.61,0.184,-395.0,14.529,92228.523,786.381,14.519,92226.125,787.86,10663,0.546,787.86,-1543496.875,28.41,1.543,0.0,0.0,0.0,0.0,4.54,0.329
10706,2,10706,43,0.54,0.129,0.499,30.596,27.301,51.78,0.11,0.21,0.121,-395.0,0.229,0.114,0.355,30.765,27.594,51.52,0.0,0.58,0.128,-395.0,14.527,92229.710,786.379,14.519,92230.679,786.75,10706,0.499,786.75,-1565995.125,-23.522,4.397,0.0,0.0,0.0,0.0,4.54,0.300
10743,2,10743,37,0.12,0.60,0.496,30.847,27.301,51.195,0.7,0.21,0.140,-395.0,0.172,0.229,0.420,30.999,27.170,51.432,0.2,0.26,0.115,-395.0,14.523,92228.828,786.477,14.514,92226.125,786.677,10743,0.496,786.677,-1584424.500,16.263,1.672,0.0,0.0,0.0,0.0,4.60,0.299
10785,2,10785,42,0.66,0.277,0.490,30.903,27.328,51.157,0.7,0.21,0.135,-395.0,0.416,-1.794,0.535,30.795,27.360,50.803,0.7,0.12,0.134,-395.0,14.519,92229.562,786.433,14.514,92235.242,786.279,10785,0.490,786.279,-1605163.500,-9.456,2.396,0.0,0.0,0.0,0.0,4.60,0.295
10821,2,10821,36,0.383,0.183,0.581,30.742,27.301,51.99,0.10,0.26,0.120,-395.0,-2.490,0.689,-1.9,30.93,27.53,50.964,0.13,0.3,0.40,-395.0,14.520,92228.828,786.602,14.533,92225.976,786.895,10821,0.581,786.895,-1624464.500,17.91,1.661,0.0,0.0,0.0,0.0,4.47,0.350
10864,2,10864,43,0.700,0.186,0.528,30.464,27.225,50.941,0.5,0.11,0.88,-395.0,-1.830,0.287,0.320,29.669,26.951,50.453,0.6,0.14,0.21,-395.0,14.522,92228.796,786.545,14.528,92225.976,786.798,10864,0.528,786.798,-1648321.0,-2.245,2.72,0.0,0.0,0.0,0.0,4.60,0.318
10900,2,10900,36,0.775,0.155,0.542,30.429,27.164,50.809,0.7,0.3,0.66,-395.0,0.143,0.272,0.427,30.590,27.287,50.394,0.8,0.19,0.19,-395.0,14.524,92228.101,786.689,14.528,92227.187,786.798,10900,0.542,786.798,-1667596.125,0.0,2.0,0.0,0.0,0.0,0.0,4.47,0.326
10942,2,10942,42,0.848,0.77,0.531,30.236,27.208,50.599,0.8,0.7,0.50,-395.0,0.193,0.157,0.363,30.35,27.389,50.380,0.8,0.46,0.36,-395.0,14.526,92228.70,786.613,14.524,92225.976,786.294,10942,0.531,786.294,-1690144.0,-12.15,2.563,0.0,0.0,0.0,0.0,4.41,0.319
10978,2,10978,36,0.946,0.325,0.503,30.76,27.225,50.517,0.7,0.24,0.28,-395.0,0.71,0.222,0.399,29.991,27.448,50.394,0.1,0.73,0.23,-395.0,14.529,92227.335,786.695,14.533,92231.601,786.690,10978,0.503,786.690,-1708773.0,11.3,1.751,0.0,0.0,0.0,0.0,4.60,0.303
11021,2,11021,43,0.453,0.218,0.357,30.67,27.281,50.450,0.10,0.44,0.22,-395.0,0.28,0.150,0.276,30.49,27.331,50.628,0.76,0.99,0.13,-395.0,14.530,92226.640,786.594,14.537,92222.484,786.389,11021,0.357,786.389,-1727289.375,-6.992,2.265,0.0,0.0,0.0,0.0,4.47,0.215
11057,2,11057,36,0.77,0.213,0.341,30.181,27.410,50.447,0.14,0.64,0.21,-395.0,0.50,0.265,0.241,30.239,27.594,50.438,0.13,0.83,0.17,-395.0,14.530,92226.398,786.512,14.528,92224.765,786.389,11057,0.341,786.389,-1739871.250,0.0,2.0,0.0,0.0,0.0,0.0,4.60,0.205
11110,2,11110,53,0.38,0.137,0.242,29.947,27.527,50.494,0.18,0.70,0.18,-395.0,0.50,0.107,0.67,29.421,27.871,50.628,0.10,0.46,0.4,-395.0,14.531,92226.859,786.531,14.533,92229.468,786.895,11110,0.242,786.895,-1755350.875,9.542,1.777,0.0,0.0,0.0,0.0,4.60,0.146
11146,2,11146,36,0.83,0.155,0.222,29.912,27.573,50.602,0.19,0.68,0.18,-395.0,0.416,0.244,0.262,29.859,27.623,50.920,0.2,0.39,0.34,-395.0,14.532,92227.320,786.509,14.528,92228.257,786.184,11146,0.222,786.184,-1763720.500,-19.729,3.450,0.0,0.0,0.0,0.0,4.60,0.133
11189,2,11189,43,0.101,0.106,0.221,29.991,27.614,50.663,0.17,0.56,0.30,-395.0,0.21,0.21,0.391,30.385,27.652,50.701,0.8,0.11,0.84,-395.0,14.533,92225.953,786.474,14.537,92224.765,786.511,11189,0.221,786.511,-1773254.500,7.596,1.814,0.0,0.0,0.0,0.0,4.54,0.133
11226,2,11226,37,0.176,0.71,0.223,30.26,27.608,50.762,0.1,0.34,0.37,-395.0,0.344,0.21,0.291,30.225,27.301,51.125,0.6,0.7,0.48,-395.0,14.532,92226.859,786.515,14.533,92227.46,786.594,11226,0.223,786.594,-1781484.750,2.243,1.936,0.0,0.0,0.0,0.0,4.54,0.134
11268,2,11268,42,0.160,0.109,0.190,29.941,27.535,50.876,0.2,0.16,0.36,-395.0,0.28,0.452,0.75,29.815,27.228,51.8,0.5,0.7,0.10,-395.0,14.533,92227.531,786.537,14.533,92228.109,786.499,11268,0.190,786.499,-1790194.0,-2.274,2.73,0.0,0.0,0.0,0.0,4.60,0.114
11304,2,11304,36,0.130,0.185,0.268,29.982,27.398,50.923,0.6,0.12,0.36,-395.0,0.100,0.272,0.320,29.625,27.185,50.862,0.9,0.27,0.5,-395.0,14.533,92226.796,786.438,14.533,92225.828,786.402,11304,0.268,786.402,-1798460.250,-2.682,2.87,0.0,0.0,0.0,0.0,4.47,0.161
11348,2,11348,44,0.60,0.126,0.321,29.824,27.348,50.944,0.7,0.10,0.35,-395.0,0.64,0.50,0.528,29.70,27.375,51.23,0.8,0.25,0.27,-395.0,14.536,92227.476,786.504,14.542,92231.601,786.511,11348,0.321,786.511,-1811437.625,2.478,1.930,0.0,0.0,0.0,0.0,4.60,0.193
11384,2,11384,36,0.48,0.199,0.315,29.678,27.337,50.967,0.6,0.12,0.23,-395.0,0.35,0.344,0.363,29.655,27.594,50.818,0.3,0.23,0.24,-395.0,14.537,92226.984,786.645,14.547,92222.335,787.221,11384,0.315,787.221,-1822908.250,19.729,1.628,0.0,0.0,0.0,0.0,4.60,0.190
11426,2,11426,42,0.24,0.203,0.348,29.523,27.290,50.862,0.5,0.21,0.15,-395.0,0.222,0.0,0.456,29.450,27.68,50.599,0.1,0.36,0.7,-395.0,14.538,92228.85,786.629,14.537,92232.531,786.511,11426,0.348,786.511,-1836863.500,-16.911,3.29,0.0,0.0,0.0,0.0,4.54,0.210
11462,2,11462,36,0.120,0.165,0.426,29.511,27.179,50.789,0.7,0.24,0.13,-395.0,0.452,0.258,0.463,29.757,26.673,50.643,0.14,0.8,0.0,-395.0,14.540,92228.726,786.571,14.542,92231.312,786.211,11462,0.426,786.211,-1850815.0,-8.349,2.334,0.0,0.0,0.0,0.0,4.41,0.256
11505,2,11505,43,0.142,0.153,0.433,29.467,27.106,50.780,0.9,0.17,0.12,-395.0,0.7,0.215,0.355,29.406,26.819,50.818,0.18,0.8,0.0,-395.0,14.543,92229.171,786.675,14.547,92228.109,786.921,11505,0.433,786.921,-1869300.500,16.517,1.668,0.0,0.0,0.0,0.0,4.60,0.261
11542,2,11542,37,0.143,0.189,0.401,29.581,27.41,50.643,0.8,0.12,0.7,-395.0,0.71,0.129,0.370,29.640,27.53,50.336,0.3,0.1,0.2,-395.0,14.543,92228.453,786.596,14.542,92227.968,786.114,11542,0.401,786.114,-1884755.125,-21.807,3.892,0.0,0.0,0.0,0.0,4.60,0.242
11584,2,11584,42,-1.65,-1.320,0.232,29.602,26.995,50.681,0.8,0.6,0.2,-395.0,-6.80,-7.207,2.809,29.757,27.360,51.8,0.3,0.5,0.3,-395.0,14.544,92228.906,786.456,14.551,92224.617,786.524,11584,0.232,786.524,-1888308.750,9.767,1.773,0.0,0.0,0.0,0.0,4.60,0.140
11648,2,11648,64,-1.121,-1.257,0.239,29.728,26.965,50.605,0.8,0.3,0.1,-395.0,0.57,0.315,0.420,30.78,26.921,50.219,0.3,0.22,0.0,-395.0,14.546,92228.296,786.454,14.547,92229.468,786.499,11648,0.239,786.499,-1873187.750,0.398,2.12,0.0,0.0,0.0,0.0,4.60,0.144
11689,2,11689,41,-1.210,-1.290,0.258,29.777,26.948,50.640,0.7,0.10,0.2,-395.0,0.7,0.93,0.370,30.5,26.585,50.818,0.10,0.41,0.3,-395.0,14.545,92227.15,786.549,14.537,92224.906,786.690,11689,0.258,786.690,-1862971.125,4.659,1.877,0.0,0.0,0.0,0.0,4.60,0.155
11725,2,11725,36,-1.151,-1.191,0.247,29.961,26.872,50.622,0.4,0.20,0.2,-395.0,0.301,0.710,0.413,30.327,26.439,50.730,0.4,0.40,0.3,-395.0,14.542,92225.890,786.446,14.533,92222.484,786.402,11725,0.247,786.402,-1853871.125,-7.988,2.315,0.0,0.0,0.0,0.0,4.60,0.148
11768,2,11768,43,-1.177,-1.157,0.236,30.61,26.793,50.748,0.4,0.24,0.3,-395.0,0.57,0.301,0.420,30.137,26.658,50.964,0.2,0.25,0.4,-395.0,14.543,92226.375,786.525,14.547,92230.390,786.511,11768,0.236,786.511,-1843464.750,2.536,1.929,0.0,0.0,0.0,0.0,4.60,0.142
11804,2,11804,36,0.28,0.325,0.386,30.207,26.664,50.657,0.4,0.32,0.3,-395.0,0.50,0.208,0.305,30.488,26.717,50.555,0.0,0.31,0.4,-395.0,14.540,92227.289,786.563,14.537,92229.179,786.716,11804,0.386,786.716,-1846149.0,5.681,1.854,0.0,0.0,0.0,0.0,4.60,0.232
11846,2,11846,42,0.71,0.288,0.350,30.96,26.559,50.760,0.5,0.35,0.3,-395.0,0.157,0.129,0.241,29.523,26.395,50.730,0.8,0.37,0.3,-395.0,14.541,92225.406,786.585,14.551,92220.62,786.607,11846,0.350,786.607,-1861611.750,-2.583,2.84,0.0,0.0,0.0,0.0,4.41,0.210
11882,2,11882,36,0.70,0.315,0.335,30.70,26.577,50.800,0.4,0.32,0.3,-395.0,0.0,0.229,0.298,29.874,26.673,51.23,0.5,0.26,0.2,-395.0,14.542,92226.23,786.692,14.542,92227.968,787.221,11882,0.335,787.221,-1873961.125,17.62,1.661,0.0,0.0,0.0,0.0,4.60,0.202
11926,2,11926,44,0.30,0.162,0.331,29.973,26.655,50.830,0.3,0.28,0.3,-395.0,0.100,0.57,0.391,29.845,26.834,50.876,0.2,0.20,0.3,-395.0,14.547,92225.539,786.735,14.556,92220.62,786.620,11926,0.331,786.620,-1888644.125,-13.676,2.695,0.0,0.0,0.0,0.0,4.60,0.199
11962,2,11962,36,0.55,0.119,0.310,29.953,26.600,50.827,0.4,0.25,0.3,-395.0,0.71,0.86,0.312,30.35,26.381,50.950,0.6,0.14,0.4,-395.0,14.548,92225.507,786.634,14.551,92230.250,786.5,11962,0.310,786.5,-1900192.375,-17.62,3.48,0.0,0.0,0.0,0.0,4.60,0.186
12004,2,12004,42,0.100,0.160,0.301,29.783,26.705,50.827,0.6,0.24,0.3,-395.0,0.172,0.416,0.262,29.640,27.243,50.555,0.7,0.21,0.1,-395.0,14.548,92224.804,786.675,14.542,92225.687,786.921,12004,0.301,786.921,-1913032.125,21.795,1.604,0.0,0.0,0.0,0.0,4.60,0.181
12040,2,12040,36,0.45,0.208,0.341,29.739,26.737,50.792,0.5,0.23,0.2,-395.0,0.114,0.366,0.442,29.304,26.556,50.555,0.5,0.34,0.1,-395.0,14.548,92226.601,786.738,14.547,92229.31,786.921,12040,0.341,786.921,-1924606.125,0.0,2.0,0.0,0.0,0.0,0.0,4.66,0.205
12083,2,12083,43,0.34,0.215,0.324,29.675,26.635,50.762,0.4,0.28,0.3,-395.0,0.57,0.265,0.212,29.552,26.161,50.876,0.1,0.52,0.3,-395.0,14.548,92226.812,786.677,14.547,92229.31,786.921,12083,0.324,786.921,-1938924.500,0.0,2.0,0.0,0.0,0.0,0.0,4.60,0.195
12119,2,12119,36,0.20,0.246,0.325,29.619,26.588,50.742,0.5,0.36,0.2,-395.0,0.28,0.100,0.399,29.567,26.600,50.774,0.3,0.57,0.2,-395.0,14.547,92228.609,786.658,14.547,92229.31,786.524,12119,0.325,786.524,-1950627.750,-11.18,2.493,0.0,0.0,0.0,0.0,4.60,0.196
12189,2,12189,70,0.31,0.265,0.332,29.310,26.688,50.716,0.4,0.41,0.2,-395.0,0.129,0.179,0.348,28.485,26.878,50.818,0.4,0.41,0.6,-395.0,14.548,92228.632,786.675,14.556,92230.390,786.88,12189,0.332,786.88,-1973685.625,-6.224,2.229,0.0,0.0,0.0,0.0,4.60,0.200
12225,2,12225,36,0.40,0.216,0.364,29.348,26.632,50.742,0.4,0.42,0.3,-395.0,0.215,0.172,0.420,29.830,26.965,50.686,0.7,0.25,0.5,-395.0,14.546,92229.789,786.694,14.533,92231.460,787.17,12225,0.364,787.17,-1986241.625,25.790,1.563,0.0,0.0,0.0,0.0,4.54,0.219
12267,2,12267,42,0.74,0.178,0.338,29.307,26.650,50.748,0.5,0.37,0.4,-395.0,0.57,0.172,0.312,29.99,26.644,50.584,0.9,0.12,0.5,-395.0,14.543,92229.820,786.692,14.533,92229.179,786.908,12267,0.338,786.908,-2001011.0,-2.596,2.84,0.0,0.0,0.0,0.0,4.60,0.204
12303,2,12303,36,0.86,0.150,0.361,29.336,26.816,50.736,0.7,0.30,0.4,-395.0,0.0,0.129,0.327,29.698,26.995,50.818,0.10,0.13,0.4,-395.0,14.541,92229.390,786.711,14.537,92226.898,787.17,12303,0.361,787.17,-2013618.750,3.29,1.916,0.0,0.0,0.0,0.0,4.60,0.217
12346,2,12346,43,0.73,0.137,0.354,29.315,26.810,50.786,0.8,0.21,0.0,-395.0,0.35,0.35,0.363,29.465,26.571,51.23,0.9,0.11,0.23,-395.0,14.540,92228.726,786.689,14.542,92225.687,786.416,12346,0.354,786.416,-2029017.500,-13.982,2.722,0.0,0.0,0.0,0.0,4.66,0.213
12383,2,12383,37,0.24,0.149,0.334,29.573,26.784,50.798,0.8,0.14,0.21,-395.0,0.114,0.236,0.248,29.771,26.746,50.876,0.7,0.7,0.99,-395.0,14.539,92227.578,786.776,14.551,92224.617,786.524,12383,0.334,786.524,-2041763.0,2.932,1.919,0.0,0.0,0.0,0.0,4.60,0.201
12424,2,12424,41,0.5,0.267,0.381,29.570,26.802,50.777,0.12,0.7,0.36,-395.0,0.64,0.760,0.657,29.815,27.53,50.584,0.25,0.8,0.69,-395.0,14.543,92226.171,786.735,14.551,92224.476,786.812,12424,0.381,786.812,-2056445.625,7.27,1.825,0.0,0.0,0.0,0.0,4.60,0.229
12460,2,12460,36,0.314,0.193,0.417,29.649,26.802,50.695,0.11,0.6,0.38,-395.0,1.658,0.193,0.492,29.494,26.644,50.175,0.5,0.9,0.5,-395.0,14.546,92226.359,786.596,14.547,92230.101,786.211,12460,0.417,786.211,-2070836.500,-16.715,3.5,0.0,0.0,0.0,0.0,4.60,0.251
12504,2,12504,44,0.302,0.246,0.424,29.573,26.693,50.581,0.11,0.8,0.38,-395.0,0.57,0.394,0.363,29.318,26.454,50.248,0.9,0.21,0.3,-395.0,14.548,92226.328,786.497,14.551,92226.757,786.524,12504,0.424,786.524,-2089372.875,7.127,1.823,0.0,0.0,0.0,0.0,4.73,0.255
12540,2,12540,36,0.300,0.244,0.434,29.666,26.579,50.324,0.8,0.12,0.33,-395.0,0.50,0.21,0.413,29.932,26.1,49.736,0.4,0.30,0.3,-395.0,14.550,92227.210,786.519,14.551,92230.101,786.524,12540,0.434,786.524,-2104849.250,0.0,2.0,0.0,0.0,0.0,0.0,4.60,0.261
12584,2,12584,44,0.364,0.150,0.483,29.491,26.556,49.997,0.7,0.18,0.12,-395.0,0.208,0.229,0.492,28.895,26.629,49.239,0.0,0.37,0.3,-395.0,14.551,92228.734,786.516,14.556,92232.234,786.511,12584,0.483,786.511,-2125059.750,0.295,2.8,0.0,0.0,0.0,0.0,4.66,0.291
12620,2,12620,36,0.387,0.139,0.307,29.485,26.597,49.590,0.11,0.26,0.3,-395.0,0.179,0.689,0.225,29.786,27.258,48.553,0.43,0.32,0.12,-395.0,14.552,92228.734,786.522,14.556,92224.476,786.838,12620,0.307,786.838,-2139295.500,9.73,1.786,0.0,0.0,0.0,0.0,4.66,0.185
12696,2,12696,76,0.43,0.47,0.279,29.614,26.480,49.406,0.10,0.31,0.5,-395.0,0.64,0.265,0.355,30.137,26.59,49.254,0.0,0.35,0.4,-395.0,14.554,92227.203,786.516,14.556,92222.484,786.184,12696,0.279,786.184,-2161601.750,-8.596,2.347,0.0,0.0,0.0,0.0,4.60,0.168
12732,2,12732,36,0.1,0.96,0.271,29.850,26.445,49.380,0.8,0.39,0.4,-395.0,0.279,0.150,0.320,30.502,26.278,50.116,0.0,0.61,0.0,-395.0,14.550,92227.484,786.511,14.533,92228.109,786.499,12732,0.271,786.499,-2171521.750,8.726,1.792,0.0,0.0,0.0,0.0,4.47,0.163
12775,2,12775,43,0.48,0.81,0.251,29.868,26.594,49.517,0.9,0.53,0.5,-395.0,0.200,0.93,0.312,30.20,26.746,50.423,0.0,0.100,0.4,-395.0,14.548,92225.921,786.487,14.537,92222.335,786.402,12775,0.251,786.402,-2182753.500,-2.245,2.72,0.0,0.0,0.0,0.0,4.54,0.151
12812,2,12812,37,0.76,0.7,0.245,30.93,26.591,49.748,0.9,0.57,0.3,-395.0,0.344,0.215,0.463,30.20,26.615,50.394,0.4,0.58,0.4,-395.0,14.544,92224.382,786.591,14.537,92224.476,787.30,12812,0.245,787.30,-2191940.0,16.967,1.662,0.0,0.0,0.0,0.0,4.60,0.147
12854,2,12854,42,0.66,0.179,0.364,29.921,26.539,50.119,0.1,0.55,0.2,-395.0,0.129,0.172,0.370,28.924,26.995,50.409,0.0,0.19,0.5,-395.0,14.542,92225.539,786.424,14.547,92230.250,786.5,12854,0.364,786.5,-2204749.500,-24.392,4.728,0.0,0.0,0.0,0.0,4.41,0.219
12890,2,12890,36,0.94,0.132,0.371,29.853,26.635,50.377,0.2,0.52,0.1,-395.0,0.78,0.28,0.391,29.801,26.541,50.540,0.6,0.21,0.3,-395.0,14.543,92225.710,786.453,14.560,92223.406,786.332,12890,0.371,786.332,-2218003.250,9.58,1.786,0.0,0.0,0.0,0.0,4.47,0.223
12933,2,12933,43,0.156,0.97,0.377,29.681,26.623,50.388,0.4,0.43,0.2,-395.0,0.28,0.21,0.348,29.640,26.220,50.175,0.9,0.19,0.2,-395.0,14.548,92226.140,786.418,14.560,92230.250,786.319,12933,0.377,786.319,-2234112.0,0.289,2.8,0.0,0.0,0.0,0.0,4.54,0.227
12969,2,12969,36,0.100,0.94,0.416,29.567,26.562,50.333,0.7,0.25,0.2,-395.0,0.78,0.78,0.506,29.450,26.439,50.146,0.17,0.7,0.7,-395.0,14.551,92226.570,786.401,14.551,92224.476,786.319,12969,0.416,786.319,-2248399.500,0.0,2.0,0.0,0.0,0.0,0.0,4.47,0.250
13011,2,13011,42,0.103,0.78,0.394,29.605,26.404,50.143,0.10,0.10,0.2,-395.0,0.358,0.136,0.355,30.210,25.825,49.444,0.18,0.13,0.6,-395.0,14.556,92227.31,786.278,14.560,92226.757,786.416,13011,0.394,786.416,-2265430.0,2.298,1.935,0.0,0.0,0.0,0.0,4.66,0.237
13047,2,13047,36,0.179,0.209,0.97,29.789,26.357,49.964,0.11,0.3,0.0,-395.0,0.509,0.825,1.115,29.845,26.761,49.517,0.8,0.18,0.4,-395.0,14.557,92226.546,786.322,14.551,92227.820,786.223,13047,0.97,786.223,-2274290.500,-5.350,2.191,0.0,0.0,0.0,0.0,4.54,0.58
13090,2,13090,43,-2.671,2.684,0.898,29.926,26.369,49.622,0.35,0.88,0.2,-395.0,-14.177,12.404,-4.397,30.488,26.600,48.830,0.124,0.449,0.9,-395.0,14.556,92228.796,786.237,14.556,92234.664,785.909,13090,0.898,785.909,-2295708.500,-7.292,2.280,0.0,0.0,0.0,0.0,4.60,0.541
13126,2,13126,36,-2.630,2.905,0.966,30.105,26.550,49.82,0.33,0.98,0.4,-395.0,0.236,1.83,0.686,30.532,27.126,47.471,0.1,0.67,0.9,-395.0,14.554,92228.328,786.360,14.551,92227.968,786.934,13126,0.966,786.934,-2329274.500,28.455,1.539,0.0,0.0,0.0,0.0,4.54,0.581
13179,2,13179,53,-2.528,2.914,0.999,30.315,26.775,48.395,0.30,0.108,0.5,-395.0,0.430,0.122,0.671,30.502,27.565,46.711,0.0,0.59,0.3,-395.0,14.555,92228.820,786.399,14.556,92226.898,786.511,13179,0.999,786.511,-2381354.250,-7.974,2.314,0.0,0.0,0.0,0.0,4.60,0.601
13215,2,13215,36,-2.587,2.757,0.967,30.365,27.97,47.857,0.29,0.123,0.5,-395.0,0.64,0.646,0.198,30.458,27.433,46.755,0.11,0.59,0.10,-395.0,14.551,92229.62,786.379,14.542,92227.968,786.319,13215,0.967,786.319,-2416755.0,-5.335,2.190,0.0,0.0,0.0,0.0,4.41,0.582
13259,2,13259,44,-2.656,2.610,-1.261,30.628,27.258,47.413,0.25,0.144,0.4,-395.0,0.165,0.86,0.355,31.160,27.565,47.296,0.7,0.83,0.4,-395.0,14.550,92228.390,786.396,14.547,92224.476,786.306,13259,-1.261,786.306,-2465802.750,0.296,2.8,0.0,0.0,0.0,0.0,4.54,0.760
13295,2,13295,36,0.232,0.136,0.447,30.587,27.375,47.182,0.0,0.66,0.1,-395.0,0.265,0.35,0.327,30.283,27.185,47.676,0.3,0.64,0.3,-395.0,14.548,92226.812,786.661,14.542,92226.757,787.234,13295,0.447,787.234,-2496577.750,25.790,1.563,0.0,0.0,0.0,0.0,4.47,0.269
13337,2,13337,42,0.218,0.35,0.378,30.681,27.418,47.126,0.0,0.65,0.2,-395.0,0.165,0.222,0.341,30.999,27.345,47.193,0.3,0.61,0.12,-395.0,14.548,92226.85,786.661,14.556,92224.328,786.934,13337,0.378,786.934,-2513940.0,-7.158,2.273,0.0,0.0,0.0,0.0,4.54,0.228
13373,2,13373,36,0.123,0.78,0.312,30.853,27.278,47.278,0.2,0.59,0.2,-395.0,0.43,0.93,0.341,31.365,26.863,47.471,0.10,0.29,0.1,-395.0,14.548,92226.265,786.664,14.551,92227.820,786.524,13373,0.312,786.524,-2526392.750,-11.379,2.518,0.0,0.0,0.0,0.0,4.54,0.188
13416,2,13416,43,0.139,0.44,0.348,30.803,27.185,47.494,0.2,0.57,0.5,-395.0,0.143,0.28,0.377,30.210,26.965,47.836,0.12,0.50,0.3,-395.0,14.550,92226.484,786.786,14.556,92229.31,786.934,13416,0.348,786.934,-2540618.500,9.527,1.777,0.0,0.0,0.0,0.0,4.47,0.210
13452,2,13452,36,0.211,0.123,0.386,30.742,26.986,47.524,0.0,0.44,0.5,-395.0,0.524,0.480,0.542,30.853,26.571,47.442,0.8,0.17,0.6,-395.0,14.552,92227.601,787.13,14.556,92230.101,787.440,13452,0.386,787.440,-2553846.500,14.49,1.703,0.0,0.0,0.0,0.0,4.60,0.232
13494,2,13494,42,0.134,0.120,0.429,30.847,26.974,47.506,0.3,0.32,0.5,-395.0,0.114,0.21,0.542,30.809,27.126,47.588,0.11,0.5,0.3,-395.0,14.555,92227.851,786.874,14.556,92227.968,786.537,13494,0.429,786.537,-2570967.500,-21.498,3.816,0.0,0.0,0.0,0.0,4.47,0.258
13531,2,13531,37,0.113,0.119,0.444,30.768,26.919,47.465,0.7,0.19,0.3,-395.0,0.57,0.215,0.420,30.605,27.68,46.989,0.13,0.3,0.3,-395.0,14.554,92229.671,786.773,14.551,92233.453,786.428,13531,0.444,786.428,-2587139.250,-2.934,2.96,0.0,0.0,0.0,0.0,4.60,0.268
13573,2,13573,42,0.116,0.182,0.446,30.605,27.6,47.325,0.7,0.15,0.3,-395.0,0.28,0.222,0.348,30.546,27.301,46.769,0.8,0.8,0.1,-395.0,14.555,92230.375,786.770,14.556,92231.312,786.511,13573,0.446,786.511,-2605858.250,1.977,1.943,0.0,0.0,0.0,0.0,4.54,0.268
13610,2,13610,37,0.90,0.188,0.430,30.798,27.170,47.170,0.6,0.13,0.3,-395.0,0.14,0.0,0.298,31.175,27.784,47.62,0.5,0.39,0.1,-395.0,14.553,92229.671,786.729,14.547,92225.539,786.729,13610,0.430,786.729,-2622083.250,5.895,1.849,0.0,0.0,0.0,0.0,4.60,0.259
13653,2,13653,43,0.20,0.140,0.386,30.795,27.410,47.103,0.4,0.10,0.2,-395.0,0.172,0.244,0.320,30.838,27.769,47.106,0.2,0.3,0.4,-395.0,14.552,92230.156,786.584,14.551,92232.531,786.716,13653,0.386,786.716,-2639642.750,0.316,2.9,0.0,0.0,0.0,0.0,4.60,0.232
13717,2,13717,64,0.30,0.160,0.353,30.830,27.518,47.27,0.3,0.11,0.3,-395.0,0.64,0.122,0.377,30.985,27.667,47.208,0.3,0.10,0.7,-395.0,14.551,92229.765,786.617,14.551,92225.976,786.703,13717,0.353,786.703,-2663297.0,0.194,2.5,0.0,0.0,0.0,0.0,4.60,0.212
13758,2,13758,41,0.58,0.113,0.330,30.914,27.670,46.977,0.0,0.21,0.3,-395.0,0.200,0.21,0.305,31.28,27.828,46.740,0.0,0.43,0.1,-395.0,14.548,92230.304,786.610,14.533,92236.164,786.389,13758,0.330,786.389,-2677302.750,-7.663,2.298,0.0,0.0,0.0,0.0,4.47,0.198
13794,2,13794,36,0.60,0.101,0.364,30.909,27.781,47.126,0.3,0.31,0.3,-395.0,0.21,0.165,0.521,30.517,27.857,47.515,0.3,0.62,0.3,-395.0,14.544,92229.453,786.648,14.537,92227.46,786.703,13794,0.364,786.703,-2689807.250,8.728,1.792,0.0,0.0,0.0,0.0,4.60,0.219
13837,2,13837,43,0.50,0.139,0.370,30.713,27.781,47.161,0.1,0.34,0.3,-395.0,0.35,0.186,0.327,30.195,27.784,47.237,0.3,0.54,0.0,-395.0,14.542,92230.171,786.563,14.537,92229.179,786.306,13837,0.370,786.306,-2705607.250,-9.237,2.383,0.0,0.0,0.0,0.0,4.60,0.223
13873,2,13873,36,0.99,0.132,0.368,30.722,27.757,47.307,0.0,0.48,0.3,-395.0,0.416,0.208,0.312,30.882,27.652,47.836,0.1,0.72,0.5,-395.0,14.540,92229.46,786.561,14.542,92226.898,786.703,13873,0.368,786.703,-2718912.750,11.33,1.751,0.0,0.0,0.0,0.0,4.60,0.222
13916,2,13916,43,0.185,0.106,0.373,30.511,27.708,47.375,0.0,0.53,0.3,-395.0,0.366,0.7,0.399,29.932,27.418,47.544,0.1,0.34,0.9,-395.0,14.539,92229.15,786.482,14.547,92225.828,786.306,13916,0.373,786.306,-2734867.250,-9.237,2.383,0.0,0.0,0.0,0.0,4.60,0.224
13952,2,13952,36,0.195,0.145,0.368,30.365,27.603,47.567,0.1,0.48,0.5,-395.0,0.251,0.172,0.284,30.298,27.301,47.705,0.10,0.17,0.7,-395.0,14.542,92227.171,786.503,14.547,92226.898,786.499,13952,0.368,786.499,-2748224.500,5.350,1.861,0.0,0.0,0.0,0.0,4.60,0.222
13995,2,13995,43,0.199,0.136,0.340,30.400,27.538,47.535,0.2,0.41,0.6,-395.0,0.0,0.122,0.377,30.692,27.535,47.354,0.9,0.29,0.7,-395.0,14.543,92227.843,786.484,14.542,92230.390,786.607,13995,0.340,786.607,-2763469.0,2.523,1.929,0.0,0.0,0.0,0.0,4.60,0.204
14031,2,14031,36,0.222,0.133,0.368,30.473,27.392,47.556,0.4,0.36,0.6,-395.0,0.78,0.172,0.470,30.561,27.53,47.339,0.4,0.29,0.0,-395.0,14.542,92227.140,786.525,14.533,92225.687,786.511,14031,0.368,786.511,-2776231.750,-2.666,2.86,0.0,0.0,0.0,0.0,4.60,0.222
14073,2,14073,42,0.190,0.124,0.378,30.330,27.357,47.357,0.6,0.27,0.6,-395.0,0.258,0.165,0.363,30.166,27.477,46.843,0.8,0.26,0.5,-395.0,14.543,92227.601,786.465,14.547,92229.179,786.402,14073,0.378,786.402,-2791935.750,-2.596,2.84,0.0,0.0,0.0,0.0,4.60,0.228
14109,2,14109,36,0.149,0.170,0.380,30.423,27.377,47.263,0.8,0.24,0.4,-395.0,0.157,0.222,0.406,30.400,27.521,47.76,0.10,0.21,0.3,-395.0,14.541,92228.31,786.446,14.537,92227.968,786.211,14109,0.380,786.211,-2805603.0,-5.320,2.189,0.0,0.0,0.0,0.0,4.54,0.229
14152,2,14152,43,0.120,0.175,0.399,30.470,27.331,47.208,0.8,0.27,0.4,-395.0,0.107,0.193,0.377,30.532,27.68,47.427,0.9,0.29,0.4,-395.0,14.541,92227.812,786.407,14.547,92225.828,786.306,14152,0.399,786.306,-2822360.0,2.219,1.937,0.0,0.0,0.0,0.0,4.60,0.240
14188,2,14188,36,0.157,0.170,0.377,30.453,27.249,47.240,0.7,0.27,0.3,-395.0,0.186,0.100,0.269,30.605,27.126,47.515,0.6,0.29,0.1,-395.0,14.541,92226.203,786.287,14.542,92222.335,786.5,14188,0.377,786.5,-2836337.500,-8.349,2.334,0.0,0.0,0.0,0.0,4.60,0.227
14258,2,14258,70,0.132,0.169,0.366,30.496,27.293,47.147,0.7,0.24,0.3,-395.0,0.50,0.165,0.413,30.780,27.272,46.872,0.3,0.16,0.4,-395.0,14.545,92225.804,786.344,14.551,92223.695,786.798,14258,0.366,786.798,-2862360.0,11.325,1.746,0.0,0.0,0.0,0.0,4.60,0.220
14294,2,14294,36,0.91,0.188,0.354,30.537,27.237,47.94,0.8,0.25,0.3,-395.0,0.57,0.258,0.305,30.371,27.199,46.579,0.11,0.29,0.3,-395.0,14.542,92225.617,786.383,14.533,92228.257,786.594,14294,0.354,786.594,-2875329.500,-5.667,2.204,0.0,0.0,0.0,0.0,4.60,0.213
14336,2,14336,42,0.113,0.162,0.337,30.537,27.111,47.223,0.7,0.21,0.2,-395.0,0.265,0.93,0.320,30.400,26.892,47.719,0.4,0.3,0.2,-395.0,14.541,92224.765,786.522,14.533,92223.695,786.908,14336,0.337,786.908,-2889857.750,7.468,1.816,0.0,0.0,0.0,0.0,4.60,0.203
14372,2,14372,36,0.83,0.156,0.327,30.479,27.141,47.199,0.4,0.20,0.2,-395.0,0.43,0.165,0.327,30.239,27.214,47.310,0.4,0.21,0.6,-395.0,14.536,92226.132,786.602,14.519,92232.671,786.703,14372,0.327,786.703,-2901819.500,-5.683,2.205,0.0,0.0,0.0,0.0,4.47,0.197
14415,2,14415,43,0.48,0.176,0.345,30.532,27.179,47.106,0.2,0.26,0.3,-395.0,0.14,0.200,0.363,30.868,27.316,47.47,0.1,0.63,0.7,-395.0,14.535,92227.523,786.725,14.537,92229.328,786.620,14415,0.345,786.620,-2916292.250,-1.943,2.61,0.0,0.0,0.0,0.0,4.60,0.208
14451,2,14451,36,0.126,0.202,0.344,30.450,27.117,47.193,0.2,0.35,0.4,-395.0,0.337,0.294,0.406,30.371,26.965,47.310,0.1,0.58,0.5,-395.0,14.533,92227.250,786.768,14.542,92222.335,787.17,14451,0.344,787.17,-2928719.0,11.33,1.751,0.0,0.0,0.0,0.0,4.60,0.207
14493,2,14493,42,0.130,0.169,0.363,30.339,27.117,47.351,0.1,0.35,0.4,-395.0,0.78,0.93,0.399,29.815,27.199,47.369,0.6,0.29,0.7,-395.0,14.535,92228.109,786.793,14.542,92232.531,786.716,14493,0.363,786.716,-2943578.750,-7.171,2.274,0.0,0.0,0.0,0.0,4.66,0.218
14529,2,14529,36,0.133,0.145,0.347,30.400,27.152,47.261,0.2,0.39,0.5,-395.0,0.279,0.28,0.241,30.707,27.68,47.266,0.12,0.21,0.0,-395.0,14.536,92227.601,786.653,14.537,92221.125,786.211,14529,0.347,786.211,-2956367.500,-14.31,2.726,0.0,0.0,0.0,0.0,4.60,0.209
14573,2,14573,44,0.185,0.146,0.337,30.441,27.223,47.135,0.4,0.37,0.5,-395.0,0.215,0.172,0.276,30.444,27.565,46.682,0.4,0.13,0.6,-395.0,14.540,92227.578,786.615,14.542,92232.531,786.511,14573,0.337,786.511,-2971429.500,6.831,1.829,0.0,0.0,0.0,0.0,4.54,0.203
14610,2,14610,37,0.202,0.155,0.332,30.485,27.281,47.117,0.6,0.27,0.5,-395.0,0.100,0.244,0.341,31.87,27.608,46.959,0.6,0.12,0.6,-395.0,14.541,92227.546,786.571,14.542,92229.179,786.402,14610,0.332,786.402,-2983829.750,-2.947,2.97,0.0,0.0,0.0,0.0,4.60,0.200
14653,2,14653,43,0.137,0.101,0.330,30.534,27.372,46.977,0.6,0.19,0.4,-395.0,0.14,0.28,0.391,30.619,27.418,46.609,0.4,0.19,0.2,-395.0,14.542,92227.992,786.388,14.547,92224.617,786.101,14653,0.330,786.101,-2998086.500,-7.3,2.265,0.0,0.0,0.0,0.0,4.60,0.198
14689,2,14689,36,0.142,0.117,0.318,30.733,27.442,46.854,0.6,0.18,0.3,-395.0,0.100,0.172,0.341,30.809,27.550,46.755,0.4,0.25,0.0,-395.0,14.542,92227.109,786.246,14.542,92228.109,786.5,14689,0.318,786.5,-3009764.0,-2.653,2.86,0.0,0.0,0.0,0.0,4.47,0.191
14759,2,14759,70,0.130,0.234,0.380,30.599,27.579,46.790,0.5,0.20,0.5,-395.0,0.222,0.552,0.549,30.35,27.755,46.945,0.5,0.31,0.9,-395.0,14.543,92228.328,786.320,14.542,92227.187,786.581,14759,0.380,786.581,-3034228.750,8.224,1.802,0.0,0.0,0.0,0.0,4.54,0.229
14796,2,14796,37,0.73,0.231,0.396,30.651,27.617,46.851,0.4,0.22,0.4,-395.0,0.71,0.157,0.355,30.707,27.755,46.989,0.2,0.21,0.2,-395.0,14.540,92227.921,786.479,14.528,92230.539,787.304,14796,0.396,787.304,-3048594.500,19.549,1.630,0.0,0.0,0.0,0.0,4.41,0.238
14838,2,14838,42,0.73,0.205,0.388,30.502,27.547,46.831,0.3,0.26,0.4,-395.0,0.100,0.114,0.305,30.342,27.258,46.857,0.1,0.35,0.4,-395.0,14.538,92228.171,786.438,14.533,92230.390,786.197,14838,0.388,786.197,-3065082.250,-26.370,5.787,0.0,0.0,0.0,0.0,4.54,0.234
14875,2,14875,37,0.87,0.212,0.377,30.587,27.570,46.898,0.1,0.30,0.4,-395.0,0.86,0.64,0.334,31.43,27.535,46.945,0.5,0.36,0.3,-395.0,14.536,92228.859,786.400,14.533,92228.109,785.909,14875,0.377,785.909,-3079262.0,-7.771,2.304,0.0,0.0,0.0,0.0,4.54,0.227
14917,2,14917,42,0.78,0.202,0.394,30.596,27.567,46.968,0.0,0.33,0.5,-395.0,0.57,0.122,0.427,30.853,27.535,47.106,0.1,0.41,0.3,-395.0,14.535,92229.992,786.541,14.537,92233.742,786.716,14917,0.394,786.716,-3095478.500,19.197,1.634,0.0,0.0,0.0,0.0,4.41,0.237
14953,2,14953,36,0.40,0.140,0.363,30.733,27.553,46.945,0.0,0.35,0.0,-395.0,0.28,0.244,0.391,30.722,27.681,46.828,0.4,0.40,0.10,-395.0,14.534,92229.484,786.486,14.537,92224.617,786.306,14953,0.363,786.306,-3109120.0,-11.379,2.518,0.0,0.0,0.0,0.0,4.54,0.218
14996,2,14996,43,0.90,0.143,0.366,30.786,27.567,46.892,0.0,0.37,0.0,-395.0,0.179,0.172,0.370,30.970,27.828,46.726,0.3,0.34,0.5,-395.0,14.537,92228.289,786.347,14.547,92224.617,786.607,14996,0.366,786.607,-3124796.500,7.3,1.826,0.0,0.0,0.0,0.0,4.54,0.220
15032,2,15032,36,0.117,0.176,0.358,30.762,27.690,46.843,0.2,0.33,0.0,-395.0,0.236,0.279,0.269,30.225,27.871,46.609,0.8,0.14,0.4,-395.0,14.539,92228.484,786.470,14.542,92231.312,786.812,15032,0.358,786.812,-3137843.500,5.698,1.854,0.0,0.0,0.0,0.0,4.41,0.216
15074,2,15074,42,0.109,0.198,0.364,30.669,27.722,46.761,0.4,0.26,0.0,-395.0,0.43,0.172,0.363,30.575,27.696,46.536,0.4,0.0,0.6,-395.0,14.542,92227.757,786.571,14.547,92224.476,786.416,15074,0.364,786.416,-3153035.0,-9.444,2.395,0.0,0.0,0.0,0.0,4.54,0.219
15110,2,15110,36,0.43,0.130,0.243,30.733,27.711,46.626,0.3,0.17,0.0,-395.0,0.272,0.215,0.175,31.175,27.477,46.433,0.4,0.1,0.2,-395.0,14.545,92226.812,786.511,14.551,92229.31,786.416,15110,0.243,786.416,-3163988.750,0.0,2.0,0.0,0.0,0.0,0.0,4.54,0.146
15153,2,15153,43,0.97,0.5,0.198,30.765,27.626,46.664,0.4,0.16,0.1,-395.0,0.301,0.437,0.162,30.882,27.258,47.18,0.10,0.32,0.0,-395.0,14.548,92227.484,786.574,14.551,92227.968,786.620,15153,0.198,786.620,-3173491.750,4.745,1.875,0.0,0.0,0.0,0.0,4.54,0.119
15189,2,15189,36,0.379,0.11,0.182,30.786,27.415,46.886,0.4,0.10,0.1,-395.0,1.586,0.143,0.291,31.72,26.775,47.836,0.4,0.4,0.7,-395.0,14.548,92227.664,786.577,14.547,92225.539,786.620,15189,0.182,786.620,-3180336.500,0.0,2.0,0.0,0.0,0.0,0.0,4.47,0.109
15260,2,15260,71,0.693,0.21,0.187,30.917,27.85,47.500,0.6,0.8,0.0,-395.0,1.808,0.229,0.298,30.882,26.220,49.678,0.16,0.4,0.2,-395.0,14.550,92227.46,786.473,14.556,92228.257,786.294,15260,0.187,786.294,-3193479.250,-4.593,2.159,0.0,0.0,0.0,0.0,4.54,0.113
15296,2,15296,36,0.676,0.10,0.198,30.888,26.755,48.211,0.8,0.8,0.11,-395.0,0.43,0.330,0.413,30.429,26.45,50.87,0.13,0.0,0.50,-395.0,14.548,92227.781,786.530,14.533,92228.109,786.703,15296,0.198,786.703,-3200427.500,11.379,1.745,0.0,0.0,0.0,0.0,4.54,0.119
15338,2,15338,42,0.726,0.145,0.308,30.783,26.477,49.0,0.9,0.15,0.21,-395.0,0.21,0.459,0.377,30.648,26.88,50.380,0.1,0.33,0.44,-395.0,14.545,92227.140,786.508,14.537,92225.828,786.306,15338,0.308,786.306,-3211066.250,-9.457,2.396,0.0,0.0,0.0,0.0,4.54,0.185
15374,2,15374,36,0.674,0.268,0.360,30.803,26.398,49.847,0.8,0.17,0.28,-395.0,0.43,0.179,0.420,30.985,26.863,51.256,0.4,0.46,0.37,-395.0,14.543,92226.468,786.590,14.542,92224.617,787.30,15374,0.360,787.30,-3223105.500,20.107,1.623,0.0,0.0,0.0,0.0,4.60,0.217
15417,2,15417,43,0.410,0.282,0.373,30.745,26.360,50.496,0.8,0.24,0.34,-395.0,0.265,0.215,0.355,30.780,26.585,51.81,0.5,0.36,0.36,-395.0,14.543,92226.500,786.590,14.547,92225.687,786.620,15417,0.373,786.620,-3238874.750,-9.539,2.400,0.0,0.0,0.0,0.0,4.54,0.224
15453,2,15453,36,0.8,0.249,0.424,30.760,26.512,50.672,0.5,0.24,0.44,-395.0,0.200,0.64,0.556,30.955,26.980,50.555,0.3,0.3,0.52,-395.0,14.542,92225.960,786.634,14.551,92225.539,786.511,15453,0.424,786.511,-3253239.750,-3.14,2.99,0.0,0.0,0.0,0.0,4.60,0.255
15495,2,15495,42,0.37,0.248,0.404,30.891,26.696,50.847,0.5,0.30,0.34,-395.0,0.100,0.323,0.312,31.87,26.965,50.964,0.10,0.34,0.0,-395.0,14.547,92224.101,786.557,14.556,92218.843,786.319,15495,0.404,786.319,-3270662.250,-4.573,2.159,0.0,0.0,0.0,0.0,4.60,0.243
15531,2,15531,36,0.31,0.211,0.419,30.952,26.837,50.838,0.4,0.28,0.26,-395.0,0.50,0.272,0.449,30.955,26.790,50.336,0.0,0.21,0.3,-395.0,14.549,92224.78,786.642,14.551,92225.687,786.729,15531,0.419,786.729,-3285492.500,11.394,1.745,0.0,0.0,0.0,0.0,4.54,0.252
15574,2,15574,43,0.47,0.162,0.411,30.818,26.924,50.783,0.2,0.29,0.31,-395.0,0.351,0.64,0.384,30.312,27.301,50.979,0.7,0.48,0.65,-395.0,14.551,92224.46,786.500,14.551,92224.476,786.319,15574,0.411,786.319,-3303360.750,-9.539,2.400,0.0,0.0,0.0,0.0,4.54,0.248
15611,2,15611,37,0.37,0.103,0.417,30.730,27.33,50.786,0.0,0.36,0.52,-395.0,0.315,0.78,0.384,30.342,27.126,51.96,0.7,0.74,0.142,-395.0,14.552,92225.414,786.420,14.551,92232.531,786.223,15611,0.417,786.223,-3318709.250,-2.596,2.84,0.0,0.0,0.0,0.0,4.54,0.251
15653,2,15653,42,0.152,0.153,0.413,30.768,27.44,50.961,0.2,0.38,0.54,-395.0,0.746,0.315,0.535,31.145,27.38,51.432,0.9,0.11,0.61,-395.0,14.553,92224.984,786.382,14.556,92223.406,786.319,15653,0.413,786.319,-3336162.0,2.287,1.935,0.0,0.0,0.0,0.0,4.73,0.249
15689,2,15689,36,0.142,0.93,0.421,30.792,27.141,50.985,0.5,0.31,0.57,-395.0,0.50,0.21,0.355,31.204,27.448,51.81,0.3,0.1,0.14,-395.0,14.553,92226.781,786.486,14.556,92227.820,786.838,15689,0.421,786.838,-3351199.0,14.409,1.698,0.0,0.0,0.0,0.0,4.60,0.254
15747,2,15747,58,0.193,0.73,0.399,30.856,27.214,51.113,0.2,0.31,0.55,-395.0,0.208,0.172,0.334,31.277,27.155,50.979,0.16,0.22,0.4,-395.0,14.555,92226.570,786.401,14.560,92224.617,786.306,15747,0.399,786.306,-3375008.750,-9.168,2.379,0.0,0.0,0.0,0.0,4.60,0.240
15783,2,15783,36,0.281,0.116,0.388,30.938,27.120,51.113,0.2,0.21,0.40,-395.0,0.86,0.150,0.334,30.722,26.834,50.979,0.7,0.2,0.11,-395.0,14.552,92228.179,786.420,14.537,92232.531,786.416,15783,0.388,786.416,-3389193.0,3.44,1.916,0.0,0.0,0.0,0.0,4.60,0.234
15829,2,15829,46,0.180,0.111,0.373,31.49,27.85,51.142,0.0,0.11,0.15,-395.0,0.186,0.100,0.305,30.897,26.951,51.242,0.7,0.24,0.135,-395.0,14.550,92227.726,786.538,14.542,92230.250,786.812,15829,0.373,786.812,-3406722.750,8.623,1.794,0.0,0.0,0.0,0.0,4.60,0.224
15865,2,15865,36,0.101,0.94,0.328,30.961,27.97,50.970,0.2,0.17,0.28,-395.0,0.351,0.229,0.312,30.707,27.97,50.570,0.1,0.42,0.5,-395.0,14.549,92229.765,786.596,14.551,92233.593,786.607,15865,0.328,786.607,-3419356.250,-5.698,2.206,0.0,0.0,0.0,0.0,4.66,0.197
15909,2,15909,44,0.97,0.180,0.341,30.874,27.38,50.897,0.2,0.18,0.33,-395.0,0.28,0.452,0.420,30.765,27.155,50.716,0.1,0.5,0.11,-395.0,14.548,92229.796,786.634,14.551,92227.968,787.30,15909,0.341,787.30,-3434102.500,9.607,1.776,0.0,0.0,0.0,0.0,4.66,0.205
15946,2,15946,37,0.12,0.153,0.350,30.830,27.12,50.882,0.0,0.20,0.32,-395.0,0.215,0.35,0.377,31.58,27.24,50.906,0.0,0.32,0.0,-395.0,14.546,92230.460,786.637,14.547,92227.968,786.319,15946,0.350,786.319,-3446901.0,-19.211,3.360,0.0,0.0,0.0,0.0,4.60,0.210
15987,2,15987,41,0.37,0.137,0.357,30.722,27.71,50.733,0.2,0.39,0.30,-395.0,0.208,0.71,0.370,30.181,27.126,50.233,0.9,0.91,0.0,-395.0,14.548,92229.93,786.700,14.551,92225.687,786.729,15987,0.357,786.729,-3461407.0,10.5,1.769,0.0,0.0,0.0,0.0,4.60,0.215
16023,2,16023,36,0.134,0.190,0.351,30.596,27.47,50.616,0.4,0.42,0.5,-395.0,0.301,0.165,0.276,30.268,26.834,50.657,0.16,0.40,0.10,-395.0,14.550,92228.390,786.560,14.551,92226.757,786.114,16023,0.351,786.114,-3474169.750,-17.93,3.52,0.0,0.0,0.0,0.0,4.60,0.211
16066,2,16066,43,0.55,0.165,0.360,30.479,27.12,50.593,0.8,0.32,0.6,-395.0,0.43,0.100,0.355,30.122,26.921,50.453,0.18,0.7,0.10,-395.0,14.550,92227.265,786.502,14.551,92227.968,786.319,16066,0.360,786.319,-3489476.0,4.770,1.874,0.0,0.0,0.0,0.0,4.66,0.217
16102,2,16102,36,0.94,0.35,0.345,30.494,26.957,50.570,0.9,0.30,0.4,-395.0,0.222,0.193,0.348,30.838,26.878,50.599,0.4,0.6,0.0,-395.0,14.550,92227.914,786.420,14.551,92231.171,786.620,16102,0.345,786.620,-3502187.0,8.349,1.799,0.0,0.0,0.0,0.0,4.60,0.208
16144,2,16144,42,0.172,0.24,0.315,30.415,26.921,50.426,0.15,0.16,0.5,-395.0,0.172,0.21,0.226,30.663,26.848,50.190,0.28,0.35,0.3,-395.0,14.553,92227.421,786.461,14.560,92225.539,786.524,16144,0.315,786.524,-3516082.0,-2.274,2.73,0.0,0.0,0.0,0.0,4.60,0.190
16180,2,16180,36,0.149,0.109,0.318,30.426,26.892,50.578,0.22,0.14,0.6,-395.0,0.93,0.495,0.384,30.239,26.980,50.993,0.44,0.62,0.6,-395.0,14.554,92226.265,786.420,14.556,92219.914,786.524,16180,0.318,786.524,-3527501.0,0.0,2.0,0.0,0.0,0.0,0.0,4.60,0.191
16223,2,16223,43,0.1,0.80,0.345,30.587,26.913,50.678,0.21,0.25,0.8,-395.0,0.437,0.21,0.413,31.72,26.936,51.154,0.9,0.16,0.19,-395.0,14.555,92224.679,786.565,14.556,92218.843,786.838,16223,0.345,786.838,-3541788.500,7.294,1.820,0.0,0.0,0.0,0.0,4.66,0.208
16286,2,16286,63,0.60,0.17,0.328,30.581,27.9,50.762,0.22,0.2,0.9,-395.0,0.351,0.387,0.269,30.93,27.404,50.876,0.27,0.108,0.16,-395.0,14.557,92225.390,786.639,14.560,92231.460,786.690,16286,0.328,786.690,-3563038.0,-2.351,2.75,0.0,0.0,0.0,0.0,4.66,0.197
16328,2,16328,42,0.175,0.503,-2.541,30.403,26.957,50.929,0.34,0.24,0.26,-395.0,0.351,-2.627,-11.410,29.947,26.615,51.432,0.62,0.128,0.88,-395.0,14.553,92225.226,786.596,14.533,92230.390,786.402,16328,-2.541,786.402,-3623303.0,-6.847,2.258,0.0,0.0,0.0,0.0,4.54,-1.530
16365,2,16365,37,0.137,0.271,-2.605,30.306,27.3,51.96,0.29,0.40,0.1,-395.0,0.358,1.141,0.549,30.181,27.82,51.23,0.3,0.43,0.121,-395.0,14.548,92225.257,786.612,14.537,92225.687,786.607,16365,-2.605,786.607,-3718518.250,5.542,1.857,0.0,0.0,0.0,0.0,4.60,-1.569
16407,2,16407,42,0.50,0.401,-2.568,30.286,26.921,51.99,0.14,0.65,0.46,-395.0,0.531,0.157,0.198,30.137,26.571,51.8,0.29,0.63,0.231,-395.0,14.547,92227.109,786.610,14.547,92229.179,786.511,16407,-2.568,786.511,-3827173.250,-2.285,2.73,0.0,0.0,0.0,0.0,4.66,-1.547
16443,2,16443,36,0.143,0.212,-2.595,29.979,26.992,51.107,0.6,0.73,0.43,-395.0,0.531,0.969,0.549,29.538,27.287,51.198,0.31,0.25,0.0,-395.0,14.546,92228.265,786.566,14.551,92224.617,786.620,16443,-2.595,786.620,-3920125.250,3.14,1.917,0.0,0.0,0.0,0.0,4.66,-1.563
16486,2,16486,43,0.328,0.238,-2.571,29.795,27.53,51.207,0.14,0.64,0.7,-395.0,0.574,0.516,0.147,29.172,27.711,51.373,0.68,0.58,0.238,-395.0,14.545,92227.328,786.571,14.556,92226.757,786.716,16486,-2.571,786.716,-4031213.0,2.232,1.937,0.0,0.0,0.0,0.0,4.60,-1.548
16522,2,16522,36,0.439,0.193,0.340,29.807,27.258,51.157,0.3,0.45,0.25,-395.0,0.200,0.466,0.255,30.5,27.638,51.183,0.5,0.36,0.0,-395.0,14.548,92226.843,786.492,14.547,92227.968,786.5,16522,0.340,786.5,-4083618.250,-19.729,3.450,0.0,0.0,0.0,0.0,4.60,0.204
16565,2,16565,43,0.459,0.21,0.320,29.713,27.275,51.236,0.1,0.41,0.0,-395.0,0.459,0.64,0.449,29.713,27.170,51.417,0.8,0.21,0.4,-395.0,14.550,92227.296,786.412,14.551,92227.968,786.211,16565,0.320,786.211,-4097813.250,4.770,1.874,0.0,0.0,0.0,0.0,4.60,0.192
16601,2,16601,36,0.353,0.15,0.363,29.581,27.415,51.274,0.6,0.30,0.47,-395.0,0.0,0.28,0.413,29.479,27.272,51.198,0.0,0.11,0.0,-395.0,14.551,92226.140,786.333,14.551,92223.406,786.114,16601,0.363,786.114,-4110111.0,-2.683,2.87,0.0,0.0,0.0,0.0,4.60,0.218
16645,2,16645,44,0.268,0.166,0.312,29.716,27.427,51.327,0.14,0.30,0.45,-395.0,0.107,0.57,0.298,30.210,27.345,51.461,0.8,0.23,0.7,-395.0,14.552,92227.484,786.251,14.556,92231.312,786.211,16645,0.312,786.211,-4124983.500,2.195,1.938,0.0,0.0,0.0,0.0,4.60,0.188
16681,2,16681,36,0.146,0.51,0.378,30.5,27.246,51.224,0.2,0.24,0.1,-395.0,0.35,0.57,0.477,30.619,26.805,50.862,0.7,0.26,0.2,-395.0,14.551,92226.781,786.155,14.551,92223.257,786.237,16681,0.378,786.237,-4137436.250,0.722,1.978,0.0,0.0,0.0,0.0,4.54,0.228
16723,2,16723,42,0.103,0.37,0.434,29.935,26.927,51.142,0.3,0.21,0.2,-395.0,0.14,0.21,0.535,29.655,26.45,50.774,0.8,0.24,0.4,-395.0,14.553,92226.750,786.196,14.556,92227.820,786.211,16723,0.434,786.211,-4154527.0,0.619,2.18,0.0,0.0,0.0,0.0,4.60,0.261
16787,2,16787,64,0.33,0.34,0.390,29.959,26.819,51.52,0.7,0.28,0.2,-395.0,0.222,0.50,0.226,29.830,26.629,50.964,0.13,0.54,0.1,-395.0,14.553,92226.992,786.235,14.551,92229.179,786.402,16787,0.390,786.402,-4180937.750,2.992,1.917,0.0,0.0,0.0,0.0,4.54,0.235
16828,2,16828,41,0.45,0.40,0.396,30.32,26.579,51.58,0.10,0.27,0.35,-395.0,0.64,0.57,0.442,29.845,26.74,51.227,0.14,0.9,0.189,-395.0,14.550,92227.695,786.333,14.537,92226.898,786.607,16828,0.396,786.607,-4197062.500,5.1,1.869,0.0,0.0,0.0,0.0,4.54,0.238
16864,2,16864,36,0.27,0.219,0.77,30.99,26.273,50.967,0.8,0.25,0.61,-395.0,0.200,-1.241,2.70,30.546,25.811,51.8,0.0,0.11,0.120,-395.0,14.546,92227.265,786.292,14.533,92229.179,786.5,16864,0.77,786.5,-4202796.0,-16.715,3.5,0.0,0.0,0.0,0.0,4.54,0.46
16907,2,16907,43,0.61,0.325,0.106,29.964,26.65,51.81,0.13,0.12,0.103,-395.0,0.208,0.473,0.334,29.947,25.767,51.432,0.32,0.38,0.214,-395.0,14.543,92227.992,786.369,14.537,92226.898,786.620,16907,0.106,786.620,-4198841.0,14.285,1.700,0.0,0.0,0.0,0.0,4.54,0.64
16943,2,16943,36,0.11,0.300,0.140,29.909,25.752,51.104,0.20,0.25,0.96,-395.0,0.236,0.107,0.363,29.377,24.481,50.891,0.42,0.92,0.41,-395.0,14.540,92228.726,786.448,14.542,92231.460,786.607,16943,0.140,786.607,-4194392.500,0.347,2.10,0.0,0.0,0.0,0.0,4.54,0.84
16986,2,16986,43,0.50,0.35,0.80,29.599,25.325,50.909,0.2,0.52,0.38,-395.0,0.416,1.730,0.528,28.281,24.495,49.985,0.98,0.185,0.290,-395.0,14.540,92228.945,786.429,14.551,92230.250,786.306,16986,0.80,786.306,-4189634.750,-7.3,2.265,0.0,0.0,0.0,0.0,4.60,0.48
17022,2,17022,36,0.297,0.706,0.81,29.424,25.182,50.572,0.16,0.50,0.112,-395.0,1.672,-3.653,0.434,28.968,25.358,49.546,0.58,0.2,0.563,-395.0,14.542,92228.914,786.453,14.547,92226.757,786.729,17022,0.81,786.729,-4186711.250,11.757,1.739,0.0,0.0,0.0,0.0,4.41,0.49
17065,2,17065,43,0.562,0.376,0.500,29.99,25.238,50.418,0.16,0.34,0.203,-395.0,1.529,0.409,0.844,28.924,26.88,50.233,0.1,0.67,0.338,-395.0,14.545,92228.210,786.576,14.547,92225.687,786.620,17065,0.500,786.620,-4195720.500,-2.549,2.82,0.0,0.0,0.0,0.0,4.54,0.301
17102,2,17102,37,0.447,0.123,0.571,28.871,25.273,50.181,0.12,0.6,0.249,-395.0,0.782,0.789,0.686,28.807,25.942,50.248,0.49,0.179,0.11,-395.0,14.548,92228.640,786.557,14.551,92229.31,786.524,17102,0.571,786.524,-4215557.500,-2.581,2.83,0.0,0.0,0.0,0.0,4.60,0.344
17147,2,17147,45,0.150,0.51,0.676,28.833,25.697,50.64,0.20,0.7,0.240,-395.0,-1.249,0.466,0.887,29.187,26.600,50.306,0.4,0.94,0.3,-395.0,14.548,92229.62,786.538,14.547,92233.593,786.511,17147,0.676,786.511,-4243624.500,0.288,2.8,0.0,0.0,0.0,0.0,4.54,0.407
17183,2,17183,36,0.383,0.117,0.825,28.965,26.132,50.181,0.5,0.4,0.180,-395.0,0.746,1.399,-1.274,28.938,26.673,50.570,0.22,0.169,0.6,-395.0,14.548,92228.820,786.582,14.547,92229.31,786.524,17183,0.825,786.524,-4270652.500,0.361,1.989,0.0,0.0,0.0,0.0,4.60,0.497
17227,2,17227,44,0.156,0.501,-1.134,29.76,26.422,50.327,0.8,0.3,0.69,-395.0,0.538,0.559,-1.978,29.523,26.805,50.277,0.7,0.2,0.7,-395.0,14.548,92228.820,786.538,14.551,92226.757,786.511,17227,-1.134,786.511,-4313762.0,0.295,2.8,0.0,0.0,0.0,0.0,4.54,0.683
17290,2,17290,63,0.172,0.417,-1.108,29.184,26.533,50.359,0.7,0.16,0.3,-395.0,0.114,0.7,0.714,29.465,26.644,50.394,0.3,0.6,0.9,-395.0,14.549,92230.0,786.615,14.551,92231.601,787.3,17290,-1.108,787.3,-4384396.500,7.811,1.810,0.0,0.0,0.0,0.0,4.60,0.667
17332,2,17332,42,0.90,0.350,-1.29,29.342,26.734,50.514,0.7,0.69,0.0,-395.0,0.531,0.452,0.291,29.596,26.951,51.23,0.24,0.87,0.3,-395.0,14.546,92230.31,786.588,14.533,92229.179,786.389,17332,-1.29,786.389,-4429285.0,-14.625,2.781,0.0,0.0,0.0,0.0,4.60,0.620
17369,2,17369,37,0.423,0.374,0.980,29.409,26.863,50.590,0.6,0.69,0.1,-395.0,0.416,0.588,0.643,29.523,27.243,50.686,0.10,0.97,0.3,-395.0,14.545,92230.62,786.569,14.542,92233.742,786.416,17369,0.980,786.416,-4466466.0,0.719,1.978,0.0,0.0,0.0,0.0,4.54,0.590
17411,2,17411,42,0.400,0.166,0.772,29.552,26.892,50.610,0.5,0.31,0.5,-395.0,0.631,0.358,0.233,29.655,26.819,50.672,0.34,0.20,0.9,-395.0,14.545,92230.85,786.525,14.547,92229.179,786.306,17411,0.772,786.306,-4503274.500,-2.609,2.84,0.0,0.0,0.0,0.0,4.60,0.465
17447,2,17447,36,0.249,0.274,0.432,29.561,26.921,50.651,0.8,0.25,0.5,-395.0,0.215,0.21,0.276,29.567,26.951,50.482,0.26,0.29,0.6,-395.0,14.543,92230.93,786.566,14.542,92226.757,786.716,17447,0.432,786.716,-4524953.0,11.379,1.745,0.0,0.0,0.0,0.0,4.54,0.260
17490,2,17490,43,0.147,0.262,0.442,30.254,26.945,50.666,0.12,0.35,0.4,-395.0,0.624,0.64,0.765,32.928,26.761,50.467,0.16,0.41,0.8,-395.0,14.542,92229.609,786.549,14.547,92229.179,786.921,17490,0.442,786.921,-4543747.0,4.770,1.874,0.0,0.0,0.0,0.0,4.41,0.266
17526,2,17526,36,0.78,0.133,0.295,30.166,26.945,50.608,0.16,0.30,0.6,-395.0,0.186,0.193,0.440,29.158,26.951,50.730,0.4,0.64,0.3,-395.0,14.544,92228.914,786.615,14.542,92225.687,786.716,17526,0.295,786.716,-4557026.500,-5.698,2.206,0.0,0.0,0.0,0.0,4.54,0.178
17568,2,17568,42,0.41,0.35,0.231,30.84,26.965,50.686,0.13,0.21,0.5,-395.0,0.186,0.258,0.320,29.114,27.345,51.81,0.5,0.50,0.0,-395.0,14.546,92229.796,786.615,14.551,92238.156,786.416,17568,0.231,786.416,-4568087.500,-7.144,2.272,0.0,0.0,0.0,0.0,4.47,0.139
17604,2,17604,36,0.12,0.104,0.229,29.944,27.30,50.792,0.8,0.31,0.4,-395.0,0.775,0.14,0.226,28.953,27.141,51.198,0.8,0.29,0.0,-395.0,14.547,92228.640,786.576,14.551,92223.406,786.114,17604,0.229,786.114,-4576379.500,-8.380,2.335,0.0,0.0,0.0,0.0,4.41,0.138
17648,2,17648,44,0.18,0.4,0.254,29.874,27.88,50.932,0.8,0.36,0.4,-395.0,0.244,0.524,0.399,29.216,27.243,51.183,0.29,0.3,0.7,-395.0,14.548,92229.93,786.620,14.551,92229.31,786.934,17648,0.254,786.934,-4587019.500,18.633,1.641,0.0,0.0,0.0,0.0,4.60,0.153
17684,2,17684,36,0.18,0.21,0.140,29.0,27.141,51.69,0.5,0.59,0.3,-395.0,0.624,0.21,0.198,28.558,27.24,51.154,0.1,0.155,0.5,-395.0,14.549,92228.609,786.541,14.551,92226.757,786.524,17684,0.140,786.524,-4594123.0,-11.379,2.518,0.0,0.0,0.0,0.0,4.60,0.84
17726,2,17726,42,0.38,0.66,0.281,29.108,27.193,51.128,0.7,0.59,0.2,-395.0,0.473,0.28,0.262,29.698,27.214,51.23,0.2,0.63,0.4,-395.0,14.552,92230.398,786.420,14.556,92234.664,786.114,17726,0.281,786.114,-4602983.0,-9.767,2.414,0.0,0.0,0.0,0.0,4.66,0.169
17762,2,17762,36,0.134,0.111,0.302,29.251,27.199,51.46,0.12,0.52,0.3,-395.0,0.294,0.28,0.427,29.830,27.375,50.672,0.20,0.14,0.6,-395.0,14.551,92228.796,786.401,14.547,92230.101,786.319,17762,0.302,786.319,-4613497.500,5.698,1.854,0.0,0.0,0.0,0.0,4.73,0.182
17816,2,17816,54,0.30,0.178,0.314,29.444,27.149,50.900,0.10,0.47,0.4,-395.0,0.251,0.344,0.284,29.918,26.892,50.467,0.0,0.6,0.5,-395.0,14.552,92230.398,786.480,14.556,92231.460,786.511,17816,0.314,786.511,-4630161.0,3.556,1.903,0.0,0.0,0.0,0.0,4.60,0.189
17853,2,17853,37,0.100,0.60,0.321,29.514,27.100,50.780,0.5,0.40,0.3,-395.0,0.107,0.64,0.434,29.567,26.995,50.584,0.1,0.36,0.29,-395.0,14.551,92230.398,786.459,14.547,92229.31,786.825,17853,0.321,786.825,-4641923.500,8.475,1.797,0.0,0.0,0.0,0.0,4.60,0.193
17896,2,17896,43,0.169,0.61,0.345,29.792,27.202,50.727,0.15,0.10,0.10,-395.0,0.279,0.28,0.320,29.947,27.535,50.891,0.51,0.2,0.76,-395.0,14.550,92230.398,786.475,14.547,92226.757,786.607,17896,0.345,786.607,-4656273.0,-5.60,2.178,0.0,0.0,0.0,0.0,4.60,0.208
17932,2,17932,36,0.34,0.246,0.383,29.836,27.190,50.716,0.21,0.8,0.13,-395.0,0.200,0.954,0.449,29.918,27.155,50.964,0.35,0.53,0.10,-395.0,14.548,92229.62,786.639,14.542,92227.968,786.934,17932,0.383,786.934,-4669397.500,9.73,1.786,0.0,0.0,0.0,0.0,4.73,0.230
17975,2,17975,43,0.130,0.433,0.411,29.780,27.141,50.795,0.5,0.5,0.2,-395.0,0.775,0.904,0.571,29.552,27.126,51.66,0.115,0.3,0.50,-395.0,14.548,92228.390,786.721,14.551,92226.757,786.729,17975,0.411,786.729,-4686494.0,-4.756,2.166,0.0,0.0,0.0,0.0,4.60,0.248
18011,2,18011,36,0.206,0.551,0.289,29.631,27.185,50.912,0.22,0.1,0.0,-395.0,0.631,0.933,0.325,29.172,27.111,51.52,0.137,0.18,0.4,-395.0,14.546,92229.492,786.598,14.542,92236.945,785.897,18011,0.289,785.897,-4699127.500,-23.122,4.264,0.0,0.0,0.0,0.0,4.60,0.174
18053,2,18053,42,0.17,0.186,0.228,29.725,27.223,51.20,0.7,0.3,0.7,-395.0,0.839,-1.887,0.126,30.35,27.185,51.125,0.72,0.21,0.7,-395.0,14.547,92228.578,786.700,14.551,92224.476,787.331,18053,0.228,787.331,-4710007.500,34.146,1.493,0.0,0.0,0.0,0.0,4.60,0.137
18089,2,18089,36,0.116,0.518,0.288,29.748,27.138,51.90,0.2,0.6,0.24,-395.0,0.215,1.686,0.621,30.64,27.111,51.242,0.0,0.14,0.83,-395.0,14.546,92228.820,786.661,14.542,92227.968,786.416,18089,0.288,786.416,-4719307.500,-25.427,5.216,0.0,0.0,0.0,0.0,4.60,0.173
18133,2,18133,44,0.156,0.380,0.278,29.809,27.56,51.34,0.2,0.5,0.43,-395.0,0.0,0.265,0.399,30.225,26.746,50.686,0.63,0.50,0.85,-395.0,14.548,92228.820,786.620,14.556,92227.968,786.729,18133,0.278,786.729,-4731779.500,7.128,1.823,0.0,0.0,0.0,0.0,4.60,0.167
18169,2,18169,36,0.0,0.436,0.298,29.959,27.68,51.61,0.23,0.24,0.48,-395.0,0.7,1.184,0.671,30.298,27.185,51.198,0.12,0.98,0.74,-395.0,14.547,92229.304,786.620,14.542,92229.179,786.729,18169,0.298,786.729,-4742165.0,0.0,2.0,0.0,0.0,0.0,0.0,4.60,0.179
18211,2,18211,42,0.18,0.159,0.406,30.219,27.35,51.5,0.4,0.33,0.85,-395.0,0.538,0.452,0.212,30.473,26.951,50.774,0.3,0.25,0.191,-395.0,14.548,92227.296,786.825,14.547,92226.898,786.921,18211,0.406,786.921,-4756964.500,4.560,1.879,0.0,0.0,0.0,0.0,4.60,0.244
18248,2,18248,37,0.145,0.753,0.525,30.336,26.930,50.859,0.10,0.24,0.194,-395.0,0.21,1.83,0.722,30.619,26.658,50.394,0.1,0.66,0.537,-395.0,14.546,92228.671,786.702,14.542,92231.312,786.716,18248,0.525,786.716,-4774198.500,-5.544,2.199,0.0,0.0,0.0,0.0,4.60,0.316
18290,2,18290,42,0.350,0.503,0.531,30.637,26.977,50.719,0.16,0.28,0.176,-395.0,1.241,0.437,0.650,31.569,27.345,50.540,0.31,0.36,0.7,-395.0,14.547,92228.210,786.784,14.547,92225.687,786.825,18290,0.531,786.825,-4796384.500,2.596,1.927,0.0,0.0,0.0,0.0,4.66,0.319
18353,2,18353,63,0.63,0.689,0.604,30.806,27.114,50.675,0.2,0.26,0.158,-395.0,-1.435,1.191,0.765,31.72,27.433,50.467,0.3,0.40,0.3,-395.0,14.545,92227.117,786.757,14.547,92222.484,786.594,18353,0.604,786.594,-4832151.0,-3.660,2.123,0.0,0.0,0.0,0.0,4.60,0.364
18395,2,18395,42,0.246,0.615,0.486,31.17,27.135,50.552,0.0,0.36,0.158,-395.0,0.911,0.818,0.83,31.350,27.287,50.584,0.30,0.149,0.76,-395.0,14.543,92227.359,786.793,14.533,92230.390,786.908,18395,0.486,786.908,-4855060.500,7.468,1.816,0.0,0.0,0.0,0.0,4.60,0.293
18432,2,18432,37,0.424,0.687,0.488,31.17,27.190,50.432,0.7,0.35,0.118,-395.0,1.428,0.93,0.219,30.473,27.228,50.175,0.37,0.15,0.7,-395.0,14.540,92228.726,786.730,14.533,92233.742,786.607,18432,0.488,786.607,-4873091.500,-8.125,2.322,0.0,0.0,0.0,0.0,4.60,0.293
18478,2,18478,46,0.258,0.638,0.366,30.979,27.325,50.266,0.19,0.26,0.11,-395.0,0.854,0.839,0.111,30.429,27.331,49.561,0.60,0.110,0.2,-395.0,14.540,92227.625,786.708,14.542,92225.828,786.607,18478,0.366,786.607,-4892734.500,0.0,2.0,0.0,0.0,0.0,0.0,4.47,0.220
18515,2,18515,37,0.324,0.526,0.327,30.862,27.187,50.87,0.11,0.33,0.14,-395.0,-1.672,0.122,0.456,30.985,26.658,49.649,0.6,0.70,0.3,-395.0,14.537,92229.234,786.747,14.533,92233.742,787.17,18515,0.327,787.17,-4905559.500,11.73,1.750,0.0,0.0,0.0,0.0,4.60,0.197
18559,2,18559,44,-2.77,-1.76,1.89,30.850,26.974,49.970,0.8,0.33,0.22,-395.0,-10.200,-6.826,6.320,31.14,26.366,49.883,0.18,0.294,0.40,-395.0,14.537,92230.789,786.689,14.542,92230.250,786.306,18559,1.89,786.306,-4888783.500,-16.156,2.940,0.0,0.0,0.0,0.0,4.60,0.656
18595,2,18595,36,-2.321,-1.267,1.78,30.938,26.816,49.728,0.18,0.74,0.9,-395.0,0.308,0.136,0.140,31.788,26.498,49.371,0.21,0.54,0.10,-395.0,14.537,92230.765,786.468,14.537,92230.250,785.800,18595,1.78,785.800,-4849758.0,-14.46,2.728,0.0,0.0,0.0,0.0,4.60,0.649
18637,2,18637,42,-2.556,0.992,1.107,31.52,26.600,49.301,0.10,0.60,0.14,-395.0,0.251,1.284,0.75,31.43,26.147,48.41,0.1,0.84,0.17,-395.0,14.539,92229.398,786.410,14.542,92226.898,786.319,18637,1.107,786.319,-4803866.500,12.350,1.729,0.0,0.0,0.0,0.0,4.66,0.666
18674,2,18674,37,-2.387,-1.138,1.109,30.979,26.33,48.745,0.0,0.18,0.15,-395.0,0.7,0.107,0.97,30.64,24.495,46.784,0.6,0.101,0.5,-395.0,14.541,92229.335,786.352,14.551,92225.539,786.319,18674,1.109,786.319,-4762854.0,0.0,2.0,0.0,0.0,0.0,0.0,4.66,0.668
18717,2,18717,43,-1.533,-1.369,1.480,30.435,25.378,47.994,0.2,0.30,0.17,-395.0,2.598,-1.277,1.395,28.266,23.384,45.893,0.21,0.9,0.12,-395.0,14.544,92228.179,786.311,14.547,92227.968,786.812,18717,1.480,786.812,-4707165.0,11.470,1.743,0.0,0.0,0.0,0.0,4.60,0.891
18753,2,18753,36,0.739,0.710,0.10,28.827,23.823,47.147,0.3,0.17,0.14,-395.0,1.162,3.574,-1.30,22.975,18.591,45.644,0.13,0.54,0.119,-395.0,14.545,92228.179,786.396,14.547,92230.250,786.729,18753,0.10,786.729,-4680337.0,-2.305,2.74,0.0,0.0,0.0,0.0,4.54,0.6
18795,2,18795,42,0.755,0.443,0.61,27.132,22.104,47.491,0.12,0.32,0.57,-395.0,0.229,-1.471,0.117,23.311,17.904,51.96,0.67,0.21,0.201,-395.0,14.548,92227.484,786.440,14.556,92226.757,786.18,18795,0.61,786.18,-4678825.500,-16.937,3.33,0.0,0.0,0.0,0.0,4.60,0.37
18865,2,18865,70,0.733,0.77,0.212,26.445,21.531,49.339,0.16,0.2,0.72,-395.0,0.143,-1.320,0.677,27.608,23.282,57.278,0.147,0.87,0.61,-395.0,14.550,92227.296,786.596,14.551,92225.976,787.100,18865,0.212,787.100,-4669221.500,15.456,1.683,0.0,0.0,0.0,0.0,4.54,0.128
18906,2,18906,41,0.829,0.169,0.156,26.123,22.52,51.420,0.0,0.31,0.76,-395.0,0.473,1.342,0.377,28.456,27.97,57.190,0.91,0.43,0.10,-395.0,14.547,92227.359,786.530,14.533,92225.828,785.992,18906,0.156,785.992,-4661653.500,-27.11,6.272,0.0,0.0,0.0,0.0,4.60,0.94
18942,2,18942,36,0.96,0.658,0.288,26.229,22.744,53.659,0.10,0.41,0.89,-395.0,-1.69,1.170,0.829,28.792,26.848,57.88,0.28,0.43,0.56,-395.0,14.545,92227.171,786.429,14.537,92227.46,786.306,18942,0.288,786.306,-4664027.500,8.711,1.792,0.0,0.0,0.0,0.0,4.54,0.173
18985,2,18985,43,0.420,0.354,0.93,27.357,24.326,55.948,0.8,0.6,0.66,-395.0,-1.421,-1.493,0.54,28.617,26.498,57.88,0.3,0.121,0.0,-395.0,14.545,92226.492,786.467,14.547,92226.898,786.921,18985,0.93,786.921,-4672234.0,14.297,1.699,0.0,0.0,0.0,0.0,4.54,0.56
19021,2,19021,36,0.532,0.643,0.80,28.243,25.767,57.182,0.0,0.30,0.29,-395.0,4.536,-2.914,0.986,27.740,25.109,57.263,0.19,0.204,0.17,-395.0,14.542,92225.367,786.648,14.542,92221.125,786.921,19021,0.80,786.921,-4672463.0,0.0,2.0,0.0,0.0,0.0,0.0,4.41,0.48
19063,2,19063,42,0.870,0.114,0.9,28.485,25.834,57.345,0.35,0.38,0.78,-395.0,1.830,1.320,0.225,28.821,23.618,58.97,0.31,0.47,0.475,-395.0,14.540,92226.437,786.574,14.542,92231.312,786.729,19063,0.9,786.729,-4670981.500,-4.560,2.158,0.0,0.0,0.0,0.0,4.47,0.5
19099,2,19099,36,1.106,0.172,0.97,28.471,24.811,58.0,0.6,0.30,0.241,-395.0,1.658,1.55,0.160,28.383,21.981,60.464,0.50,0.81,0.807,-395.0,14.544,92226.625,786.661,14.551,92226.757,786.428,19099,0.97,786.428,-4669401.500,-8.366,2.335,0.0,0.0,0.0,0.0,4.54,0.58
19142,2,19142,43,1.251,0.203,0.21,27.784,22.560,59.152,0.16,0.47,0.258,-395.0,0.344,1.12,-1.210,25.358,15.594,62.847,0.75,0.40,0.29,-395.0,14.549,92226.570,786.765,14.565,92226.757,786.825,19142,0.21,786.825,-4666835.500,9.224,1.783,0.0,0.0,0.0,0.0,4.60,0.13
19178,2,19178,36,1.434,0.445,0.84,26.597,19.193,60.347,0.3,0.19,0.273,-395.0,0.509,1.751,0.585,22.683,9.660,63.66,0.92,0.17,0.75,-395.0,14.552,92227.640,786.688,14.560,92232.234,786.537,19178,0.84,786.537,-4667969.0,-8.2,2.315,0.0,0.0,0.0,0.0,4.47,0.50
19221,2,19221,43,0.551,1.144,0.348,25.361,15.866,61.686,0.13,0.30,0.286,-395.0,0.122,0.581,0.334,21.558,8.477,63.957,0.30,0.258,0.43,-395.0,14.557,92229.890,786.491,14.565,92232.382,785.935,19221,0.348,785.935,-4677287.0,-13.982,2.722,0.0,0.0,0.0,0.0,4.54,0.210
19258,2,19258,37,0.602,0.864,0.239,21.110,10.806,62.899,0.29,0.74,0.192,-395.0,2.88,0.78,0.771,7.570,-1.680,64.162,0.49,0.172,0.7,-395.0,14.560,92229.609,786.390,14.556,92229.960,786.223,19258,0.239,786.223,-4688173.500,7.772,1.810,0.0,0.0,0.0,0.0,4.54,0.144
19300,2,19300,42,0.488,0.656,0.332,15.121,5.331,63.659,0.26,0.111,0.28,-395.0,1.83,0.14,0.305,-1.563,-5.393,64.264,0.32,0.103,0.10,-395.0,14.562,92230.265,786.452,14.565,92229.960,786.742,19300,0.332,786.742,-4700199.0,12.350,1.729,0.0,0.0,0.0,0.0,4.47,0.200
19363,2,19363,63,0.469,0.480,0.142,7.772,1.75,63.712,0.38,0.99,0.23,-395.0,0.437,0.136,0.255,-11.385,-5.685,63.110,0.13,0.18,0.0,-395.0,14.562,92230.734,786.409,14.565,92229.179,786.607,19363,0.142,786.607,-4715162.500,-2.136,2.68,0.0,0.0,0.0,0.0,4.54,0.85
19406,2,19406,43,0.585,0.104,0.96,0.464,-1.961,63.706,0.19,0.109,0.7,-395.0,0.71,0.129,0.355,-13.855,-5.524,63.37,0.2,0.33,0.4,-395.0,14.560,92229.671,786.568,14.551,92226.898,787.331,19406,0.96,787.331,-4720282.500,16.834,1.664,0.0,0.0,0.0,0.0,4.54,0.57
19442,2,19442,36,0.552,0.379,0.131,-8.494,-4.206,63.624,0.16,0.63,0.2,-395.0,0.43,-1.837,0.513,-23.238,-2.747,63.548,0.14,0.28,0.4,-395.0,14.559,92229.679,786.685,14.556,92232.382,786.524,19442,0.131,786.524,-4724388.0,-22.413,4.52,0.0,0.0,0.0,0.0,4.47,0.79
19484,2,19484,42,0.74,0.337,1.853,-14.972,-4.203,63.586,0.6,0.46,0.1,-395.0,-1.48,3.503,10.698,-24.817,-1.666,63.972,0.1,0.86,0.10,-395.0,14.559,92228.828,786.746,14.556,92225.687,786.524,19484,1.853,786.524,-4688234.500,0.0,2.0,0.0,0.0,0.0,0.0,4.54,1.116
19520,2,19520,36,0.143,0.432,1.843,-19.871,-3.227,63.574,0.1,0.34,0.0,-395.0,0.739,0.488,0.355,-26.59,0.511,64.206,0.6,0.44,0.2,-395.0,14.557,92229.304,786.828,14.556,92232.382,787.151,19520,1.843,787.151,-4621686.500,17.425,1.656,0.0,0.0,0.0,0.0,4.54,1.110
19563,2,19563,43,0.57,0.480,1.796,-23.303,-1.862,63.908,0.2,0.37,0.0,-395.0,0.7,0.380,0.492,-28.544,1.140,64.776,0.20,0.2,0.3,-395.0,14.555,92229.31,786.814,14.556,92227.820,786.537,19563,1.796,786.537,-4543433.500,-14.297,2.751,0.0,0.0,0.0,0.0,4.41,1.81
19600,2,19600,37,0.145,0.524,1.796,-26.182,0.412,64.232,0.3,0.37,0.0,-395.0,0.366,0.86,0.355,-28.251,1.724,64.659,0.8,0.31,0.1,-395.0,14.556,92228.976,786.573,14.556,92226.609,786.127,19600,1.796,786.127,-4476976.0,-11.58,2.496,0.0,0.0,0.0,0.0,4.47,1.81
19642,2,19642,42,0.101,0.895,1.833,-27.357,0.529,64.451,0.7,0.41,0.0,-395.0,0.172,0.21,0.327,-29.114,1.958,64.644,0.1,0.47,0.4,-395.0,14.556,92228.62,786.554,14.556,92227.820,786.428,19642,1.833,786.428,-4400754.0,7.157,1.823,0.0,0.0,0.0,0.0,4.54,1.104
19679,2,19679,37,0.146,0.190,0.377,-28.573,1.593,64.630,0.7,0.27,0.3,-395.0,0.193,0.21,0.355,-30.897,3.653,64.864,0.0,0.14,0.5,-395.0,14.556,92226.875,786.556,14.556,92219.765,786.537,19679,0.377,786.537,-4373818.500,2.934,1.919,0.0,0.0,0.0,0.0,4.60,0.227
19722,2,19722,43,0.14,0.153,0.380,-29.541,2.546,64.828,0.7,0.22,0.4,-395.0,0.64,0.301,0.370,-30.897,4.253,65.200,0.6,0.19,0.7,-395.0,14.559,92226.171,786.472,14.570,92228.890,786.729,19722,0.380,786.729,-4390112.500,4.479,1.881,0.0,0.0,0.0,0.0,4.60,0.229
19758,2,19758,36,0.28,0.127,0.361,-29.921,3.118,64.872,0.4,0.27,0.5,-395.0,0.78,0.251,0.399,-30.444,4.4,64.995,0.3,0.22,0.9,-395.0,14.560,92225.937,786.453,14.560,92226.609,786.442,19758,0.361,786.442,-4403469.500,-7.988,2.315,0.0,0.0,0.0,0.0,4.66,0.217
19805,2,19805,47,0.68,0.155,0.357,-30.648,3.838,65.62,0.2,0.28,0.6,-395.0,0.122,0.222,0.334,-31.891,5.320,65.609,0.1,0.34,0.5,-395.0,14.560,92226.851,786.433,14.560,92231.171,786.31,19805,0.357,786.31,-4420368.0,-8.728,2.354,0.0,0.0,0.0,0.0,4.60,0.215
19853,2,19853,48,0.64,0.167,0.367,-31.356,4.676,65.285,0.3,0.23,0.6,-395.0,0.150,0.86,0.377,-32.651,6.153,65.755,0.6,0.25,0.3,-395.0,14.560,92227.85,786.554,14.556,92229.31,787.30,19853,0.367,787.30,-4437764.0,20.800,1.615,0.0,0.0,0.0,0.0,4.60,0.221
19896,2,19896,43,0.8,0.199,0.381,-31.750,5.314,65.448,0.4,0.24,0.7,-395.0,0.86,0.136,0.427,-32.870,6.840,65.682,0.6,0.19,0.10,-395.0,14.560,92228.484,786.469,14.551,92226.757,786.114,19896,0.381,786.114,-4453872.500,-21.301,3.770,0.0,0.0,0.0,0.0,4.73,0.229
19932,2,19932,36,0.11,0.172,0.364,-32.212,5.933,65.606,0.4,0.28,0.6,-395.0,0.50,0.165,0.284,-33.206,7.351,65.989,0.3,0.39,0.4,-395.0,14.558,92227.828,786.450,14.560,92225.539,786.633,19932,0.364,786.633,-4467307.0,14.409,1.698,0.0,0.0,0.0,0.0,4.60,0.219
19974,2,19974,42,0.47,0.155,0.358,-32.896,6.711,65.831,0.4,0.30,0.6,-395.0,0.100,0.165,0.370,-33.864,7.892,66.121,0.3,0.32,0.7,-395.0,14.558,92228.523,786.551,14.560,92230.101,786.946,19974,0.358,786.946,-4482498.500,7.468,1.816,0.0,0.0,0.0,0.0,4.60,0.216
20010,2,20010,36,0.20,0.136,0.376,-33.241,7.421,65.910,0.5,0.27,0.6,-395.0,0.14,0.129,0.420,-33.615,8.871,66.4,0.8,0.19,0.3,-395.0,14.557,92227.609,786.630,14.556,92226.609,786.428,20010,0.376,786.428,-4495726.500,-14.395,2.760,0.0,0.0,0.0,0.0,4.60,0.226
20053,2,20053,43,0.24,0.155,0.377,-33.577,8.70,66.18,0.5,0.27,0.6,-395.0,0.71,0.179,0.384,-34.332,9.397,66.296,0.7,0.28,0.3,-395.0,14.559,92226.875,786.554,14.565,92225.398,786.647,20053,0.377,786.647,-4511928.0,5.85,1.867,0.0,0.0,0.0,0.0,4.60,0.227
20089,2,20089,36,0.2,0.150,0.340,-33.832,8.576,66.123,0.5,0.30,0.5,-395.0,0.50,0.114,0.241,-34.142,9.368,66.208,0.4,0.31,0.7,-395.0,14.560,92226.609,786.619,14.560,92225.398,786.442,20089,0.340,786.442,-4524846.0,-5.696,2.206,0.0,0.0,0.0,0.0,4.60,0.204
20131,2,20131,42,0.28,0.157,0.345,-33.992,8.971,66.214,0.5,0.28,0.5,-395.0,0.78,0.200,0.312,-34.10,9.324,66.442,0.2,0.29,0.5,-395.0,14.562,92226.820,786.540,14.570,92226.609,786.237,20131,0.345,786.237,-4539253.500,-4.884,2.171,0.0,0.0,0.0,0.0,4.60,0.208
20167,2,20167,36,0.5,0.152,0.327,-34.33,9.348,66.170,0.5,0.26,0.4,-395.0,0.14,0.136,0.276,-34.68,9.777,65.901,0.2,0.22,0.4,-395.0,14.563,92225.890,786.480,14.565,92225.398,786.647,20167,0.327,786.647,-4551370.0,11.394,1.745,0.0,0.0,0.0,0.0,4.60,0.197
20210,2,20210,43,0.5,0.149,0.360,-34.261,9.549,66.261,0.4,0.27,0.5,-395.0,0.71,0.114,0.585,-34.755,9.880,66.457,0.4,0.25,0.6,-395.0,14.566,92227.15,786.502,14.570,92232.234,786.537,20210,0.360,786.537,-4566151.500,-2.560,2.83,0.0,0.0,0.0,0.0,4.47,0.217
20246,2,20246,36,0.11,0.133,0.391,-34.320,9.611,66.331,0.3,0.28,0.6,-395.0,0.14,0.100,0.542,-34.624,9.704,66.647,0.4,0.33,0.7,-395.0,14.567,92226.554,786.379,14.570,92223.117,786.31,20246,0.391,786.31,-4579689.500,-14.32,2.727,0.0,0.0,0.0,0.0,4.60,0.236
20288,2,20288,42,0.5,0.133,0.409,-34.346,9.695,66.436,0.3,0.27,0.5,-395.0,0.35,0.114,0.327,-34.273,9.792,66.734,0.2,0.26,0.7,-395.0,14.569,92227.914,786.458,14.570,92232.234,786.838,20288,0.409,786.838,-4596509.0,19.198,1.634,0.0,0.0,0.0,0.0,4.60,0.246
20324,2,20324,36,0.2,0.147,0.397,-34.320,9.812,66.495,0.2,0.27,0.5,-395.0,0.93,0.272,0.255,-33.878,9.909,66.734,0.0,0.29,0.3,-395.0,14.569,92228.593,786.562,14.570,92229.960,786.755,20324,0.397,786.755,-4611029.0,-2.292,2.73,0.0,0.0,0.0,0.0,4.60,0.239
20394,2,20394,70,0.20,0.149,0.403,-34.431,9.774,66.588,0.3,0.27,0.5,-395.0,0.100,0.143,0.305,-34.624,9.587,66.369,0.6,0.22,0.3,-395.0,14.570,92229.562,786.578,14.570,92230.250,786.729,20394,0.403,786.729,-4639061.500,0.371,2.11,0.0,0.0,0.0,0.0,4.73,0.242
20431,2,20431,37,0.8,0.160,0.334,-34.375,9.649,66.562,0.2,0.28,0.5,-395.0,0.14,0.172,0.241,-34.478,9.251,66.325,0.0,0.30,0.5,-395.0,14.565,92229.164,786.535,14.547,92230.250,786.319,20431,0.334,786.319,-4652710.0,-11.86,2.498,0.0,0.0,0.0,0.0,4.60,0.201
20473,2,20473,42,0.30,0.167,0.330,-34.153,9.611,66.609,0.1,0.27,0.5,-395.0,0.208,0.136,0.521,-33.513,9.514,66.881,0.0,0.28,0.8,-395.0,14.563,92229.648,786.655,14.560,92225.539,786.633,20473,0.330,786.633,-4666665.500,7.466,1.816,0.0,0.0,0.0,0.0,4.54,0.198
20510,2,20510,37,0.33,0.143,0.351,-34.48,9.500,66.550,0.1,0.25,0.4,-395.0,0.21,0.7,0.434,-33.747,9.237,66.442,0.4,0.18,0.2,-395.0,14.561,92228.93,786.715,14.560,92224.476,787.138,20510,0.351,787.138,-4679278.0,13.668,1.709,0.0,0.0,0.0,0.0,4.66,0.211
20553,2,20553,43,0.2,0.155,0.380,-34.147,9.397,66.448,0.3,0.25,0.4,-395.0,0.57,0.330,0.399,-34.375,9.397,66.223,0.5,0.27,0.2,-395.0,14.560,92227.671,786.630,14.560,92227.820,786.332,20553,0.380,786.332,-4695016.500,-18.764,3.288,0.0,0.0,0.0,0.0,4.47,0.229
20590,2,20590,37,0.27,0.150,0.430,-34.4,9.470,66.404,0.2,0.27,0.4,-395.0,0.21,0.122,0.556,-33.908,9.953,66.150,0.2,0.35,0.5,-395.0,14.557,92226.726,786.712,14.556,92225.539,787.138,20590,0.430,787.138,-4710019.500,21.807,1.604,0.0,0.0,0.0,0.0,4.60,0.259
20633,2,20633,43,0.34,0.132,0.463,-33.919,9.555,66.363,0.4,0.26,0.4,-395.0,0.21,0.78,0.406,-34.54,9.675,66.121,0.9,0.25,0.3,-395.0,14.560,92225.109,786.797,14.565,92222.195,786.742,20633,0.463,786.742,-4729246.0,-9.224,2.382,0.0,0.0,0.0,0.0,4.66,0.279
20669,2,20669,36,0.12,0.163,0.439,-33.981,9.517,66.258,0.5,0.24,0.4,-395.0,0.28,0.294,0.399,-33.820,9.324,66.354,0.3,0.18,0.6,-395.0,14.560,92224.625,786.717,14.556,92223.117,786.237,20669,0.439,786.237,-4745497.500,-14.32,2.727,0.0,0.0,0.0,0.0,4.54,0.264
20712,2,20712,43,0.7,0.206,0.424,-33.902,9.611,66.205,0.5,0.26,0.4,-395.0,0.7,0.208,0.363,-33.352,9.704,66.179,0.6,0.28,0.2,-395.0,14.560,92224.382,786.638,14.560,92223.257,786.742,20712,0.424,786.742,-4764075.500,11.748,1.739,0.0,0.0,0.0,0.0,4.41,0.255
20748,2,20748,36,0.14,0.139,0.378,-33.724,9.713,66.85,0.5,0.27,0.3,-395.0,0.50,0.7,0.169,-33.484,9.909,65.624,0.3,0.27,0.0,-395.0,14.560,92224.570,786.720,14.565,92228.742,786.742,20748,0.378,786.742,-4778544.0,0.0,2.0,0.0,0.0,0.0,0.0,4.60,0.228
20791,2,20791,43,0.21,0.166,0.350,-33.700,9.809,66.85,0.6,0.23,0.3,-395.0,0.57,0.258,0.413,-33.791,10.435,66.150,0.9,0.19,0.1,-395.0,14.564,92225.671,786.540,14.574,92231.23,786.237,20791,0.350,786.237,-4794220.500,-11.748,2.544,0.0,0.0,0.0,0.0,4.41,0.210
20827,2,20827,36,0.0,0.179,0.351,-33.662,9.935,66.214,0.5,0.23,0.3,-395.0,0.86,0.143,0.413,-33.864,10.304,66.764,0.2,0.23,0.3,-395.0,14.566,92227.218,786.561,14.574,92229.960,786.850,20827,0.351,786.850,-4806854.0,17.47,1.661,0.0,0.0,0.0,0.0,4.60,0.211
20897,2,20897,70,0.22,0.152,0.347,-33.662,10.122,66.202,0.4,0.25,0.3,-395.0,0.86,0.157,0.377,-33.820,10.260,66.296,0.2,0.27,0.7,-395.0,14.569,92229.109,786.679,14.570,92232.531,786.825,20897,0.347,786.825,-4831319.0,0.364,2.11,0.0,0.0,0.0,0.0,4.41,0.209
20933,2,20933,36,0.11,0.162,0.335,-33.826,10.268,66.357,0.4,0.24,0.2,-395.0,0.50,0.258,0.305,-34.171,10.435,66.954,0.5,0.23,0.0,-395.0,14.567,92230.234,786.515,14.551,92228.890,785.923,20933,0.335,785.923,-4843616.500,-25.49,5.24,0.0,0.0,0.0,0.0,4.54,0.202
20975,2,20975,42,0.5,0.195,0.374,-33.966,10.368,66.699,0.4,0.24,0.2,-395.0,0.35,0.157,0.363,-34.185,10.406,67.334,0.1,0.28,0.0,-395.0,14.567,92229.593,786.493,14.565,92225.539,786.633,20975,0.374,786.633,-4858536.500,16.898,1.663,0.0,0.0,0.0,0.0,4.54,0.225
21011,2,21011,36,0.25,0.178,0.368,-34.68,10.266,66.863,0.3,0.25,0.3,-395.0,0.43,0.172,0.384,-34.302,9.923,66.968,0.4,0.26,0.3,-395.0,14.565,92229.164,786.594,14.565,92228.890,786.742,21011,0.368,786.742,-4871919.500,3.29,1.916,0.0,0.0,0.0,0.0,4.47,0.222
21054,2,21054,43,0.5,0.167,0.335,-34.127,10.228,66.781,0.3,0.26,0.3,-395.0,0.71,0.93,0.248,-34.156,10.114,66.354,0.2,0.28,0.4,-395.0,14.564,92229.156,786.491,14.570,92229.960,786.332,21054,0.335,786.332,-4887071.500,-9.539,2.400,0.0,0.0,0.0,0.0,4.47,0.202
21090,2,21090,36,0.7,0.251,0.638,-34.159,10.204,66.851,0.3,0.27,0.3,-395.0,0.93,0.574,-1.892,-33.981,10.143,66.647,0.3,0.29,0.7,-395.0,14.563,92227.734,786.433,14.565,92225.398,786.537,21090,0.638,786.537,-4904615.0,5.698,1.854,0.0,0.0,0.0,0.0,4.60,0.384
21137,2,21137,47,0.7,0.212,0.634,-34.127,10.166,66.834,0.3,0.27,0.4,-395.0,0.122,0.64,0.284,-34.10,10.245,66.866,0.4,0.24,0.7,-395.0,14.567,92226.343,786.597,14.570,92221.906,786.742,21137,0.634,786.742,-4934537.0,4.363,1.884,0.0,0.0,0.0,0.0,4.60,0.382
21174,2,21174,37,0.25,0.251,0.620,-34.115,10.163,66.875,0.3,0.29,0.5,-395.0,0.129,0.351,0.291,-34.127,10.391,67.538,0.1,0.37,0.5,-395.0,14.566,92225.890,786.556,14.560,92223.257,786.428,21174,0.620,786.428,-4957747.0,-8.477,2.341,0.0,0.0,0.0,0.0,4.54,0.373
21218,2,21218,44,0.66,0.236,0.612,-34.4,10.309,66.875,0.3,0.28,0.6,-395.0,0.157,0.100,0.348,-33.747,10.654,66.968,0.5,0.24,0.5,-395.0,14.566,92225.398,786.493,14.565,92226.460,786.428,21218,0.612,786.428,-4984874.500,0.0,2.0,0.0,0.0,0.0,0.0,4.41,0.369
21254,2,21254,36,0.45,0.281,0.628,-34.86,10.263,66.924,0.4,0.27,0.5,-395.0,0.28,0.315,0.327,-34.565,9.880,66.603,0.5,0.20,0.3,-395.0,14.565,92224.945,786.477,14.565,92227.679,786.249,21254,0.628,786.249,-5007225.0,-4.972,2.175,0.0,0.0,0.0,0.0,4.60,0.378
21296,2,21296,42,0.27,0.225,0.311,-34.95,10.260,66.898,0.4,0.27,0.4,-395.0,0.0,0.294,0.305,-34.25,10.128,66.515,0.7,0.30,0.2,-395.0,14.565,92226.734,786.477,14.565,92234.375,786.537,21296,0.311,786.537,-5026969.0,6.847,1.829,0.0,0.0,0.0,0.0,4.60,0.187
21332,2,21332,36,0.48,0.226,0.318,-34.106,10.336,66.919,0.4,0.28,0.3,-395.0,0.14,0.71,0.320,-34.68,10.625,66.968,0.1,0.27,0.3,-395.0,14.564,92226.765,786.438,14.565,92222.46,786.550,21332,0.318,786.550,-5038310.500,0.376,1.988,0.0,0.0,0.0,0.0,4.54,0.191
21402,2,21402,70,0.21,0.212,0.345,-34.218,10.304,66.688,0.5,0.25,0.4,-395.0,0.7,0.279,0.427,-34.682,10.230,66.384,0.6,0.23,0.5,-395.0,14.565,92228.382,786.499,14.565,92231.312,786.729,21402,0.345,786.729,-5061569.500,2.558,1.928,0.0,0.0,0.0,0.0,4.41,0.208
21438,2,21438,36,0.20,0.228,0.340,-34.305,10.201,66.448,0.4,0.25,0.3,-395.0,0.50,0.179,0.320,-34.185,10.143,65.770,0.3,0.25,0.3,-395.0,14.562,92227.312,786.499,14.551,92221.125,786.428,21438,0.340,786.428,-5073919.0,-8.366,2.335,0.0,0.0,0.0,0.0,4.47,0.204
21481,2,21481,43,0.4,0.183,0.347,-34.326,10.289,66.384,0.4,0.28,0.3,-395.0,0.93,0.93,0.363,-34.668,10.318,66.281,0.4,0.34,0.3,-395.0,14.559,92227.789,786.472,14.547,92230.101,786.114,21481,0.347,786.114,-5088700.500,-7.305,2.280,0.0,0.0,0.0,0.0,4.47,0.209
21518,2,21518,37,0.14,0.134,0.357,-34.481,10.298,66.363,0.3,0.27,0.3,-395.0,0.50,0.50,0.355,-34.799,10.172,66.413,0.3,0.26,0.2,-395.0,14.557,92226.484,786.532,14.556,92227.820,786.838,21518,0.357,786.838,-5101738.0,19.564,1.630,0.0,0.0,0.0,0.0,4.41,0.215
21561,2,21561,43,0.15,0.173,0.361,-34.565,10.254,66.240,0.4,0.27,0.4,-395.0,0.7,0.265,0.341,-34.492,10.406,66.354,0.2,0.25,0.6,-395.0,14.556,92227.851,786.589,14.560,92228.890,786.838,21561,0.361,786.838,-5117198.500,0.0,2.0,0.0,0.0,0.0,0.0,4.47,0.217
21597,2,21597,36,0.11,0.145,0.367,-34.507,10.190,66.208,0.3,0.28,0.4,-395.0,0.28,0.136,0.456,-34.390,9.909,66.223,0.5,0.27,0.6,-395.0,14.554,92227.820,786.573,14.556,92231.171,786.647,21597,0.367,786.647,-5130323.0,-5.306,2.189,0.0,0.0,0.0,0.0,4.54,0.221
21640,2,21640,43,0.18,0.470,0.505,-34.498,10.157,66.275,0.4,0.28,0.4,-395.0,0.14,1.808,-1.9,-34.142,9.982,66.106,0.6,0.30,0.1,-395.0,14.556,92229.617,786.696,14.560,92230.101,787.43,21640,0.505,787.43,-5149086.500,9.212,1.783,0.0,0.0,0.0,0.0,4.54,0.304
21677,2,21677,37,0.4,0.435,0.492,-34.370,10.143,66.220,0.3,0.25,0.4,-395.0,0.21,0.86,0.298,-34.25,10.245,66.4,0.0,0.19,0.6,-395.0,14.559,92229.828,786.882,14.560,92231.171,787.43,21677,0.492,787.43,-5167542.500,0.0,2.0,0.0,0.0,0.0,0.0,4.47,0.296
21719,2,21719,42,0.28,0.498,0.486,-34.220,10.122,66.164,0.4,0.25,0.5,-395.0,0.71,0.366,0.327,-34.54,10.70,66.135,0.5,0.26,0.5,-395.0,14.560,92230.250,786.802,14.565,92229.960,786.442,21719,0.486,786.442,-5188100.500,-14.314,2.752,0.0,0.0,0.0,0.0,4.47,0.293
21755,2,21755,36,0.17,0.455,0.579,-34.256,10.64,66.126,0.4,0.29,0.3,-395.0,0.50,0.50,0.808,-34.668,10.114,66.164,0.2,0.43,0.0,-395.0,14.561,92230.226,786.827,14.565,92228.742,786.960,21755,0.579,786.960,-5207298.0,14.409,1.698,0.0,0.0,0.0,0.0,4.60,0.349
21798,2,21798,43,0.11,0.518,0.598,-34.247,10.96,66.112,0.4,0.27,0.3,-395.0,0.0,0.452,0.549,-34.346,10.70,66.150,0.8,0.17,0.3,-395.0,14.562,92228.617,786.824,14.560,92223.117,786.633,21798,0.598,786.633,-5232636.0,-7.622,2.296,0.0,0.0,0.0,0.0,4.66,0.360
21834,2,21834,36,0.45,0.234,0.488,-34.349,10.149,66.182,0.5,0.28,0.4,-395.0,0.186,0.387,0.456,-34.653,10.245,66.457,0.7,0.35,0.8,-395.0,14.564,92228.140,786.723,14.570,92227.679,786.537,21834,0.488,786.537,-5252195.500,-2.666,2.86,0.0,0.0,0.0,0.0,4.60,0.293
21905,2,21905,71,0.47,0.348,0.489,-34.440,10.61,66.264,0.6,0.27,0.3,-395.0,0.28,0.488,0.305,-34.478,9.807,66.413,0.7,0.14,0.1,-395.0,14.567,92227.257,786.701,14.574,92226.757,786.934,21905,0.489,786.934,-5286897.500,5.593,1.856,0.0,0.0,0.0,0.0,4.60,0.294
21941,2,21941,36,0.38,0.340,0.483,-34.434,10.52,66.290,0.5,0.28,0.3,-395.0,0.28,0.323,0.298,-34.25,10.26,66.267,0.0,0.31,0.5,-395.0,14.566,92227.500,786.718,14.560,92231.171,786.524,21941,0.483,786.524,-5304415.500,-11.379,2.518,0.0,0.0,0.0,0.0,4.60,0.291
21978,2,21978,37,0.41,0.350,0.390,-34.326,10.2,66.401,0.7,0.25,0.4,-395.0,0.35,0.100,0.341,-34.127,9.865,66.720,0.13,0.29,0.2,-395.0,14.564,92226.859,786.794,14.556,92225.539,787.344,21978,0.390,787.344,-5320587.500,22.145,1.600,0.0,0.0,0.0,0.0,4.60,0.235
22020,2,22020,42,0.60,0.265,0.388,-34.375,10.67,66.483,0.5,0.27,0.4,-395.0,0.93,0.28,0.542,-34.595,10.391,66.559,0.1,0.24,0.2,-395.0,14.565,92226.882,786.677,14.565,92223.257,786.45,22020,0.388,786.45,-5336955.0,-30.917,14.796,0.0,0.0,0.0,0.0,4.60,0.234
22056,2,22056,36,0.8,0.208,0.450,-34.446,10.61,66.509,0.11,0.26,0.2,-395.0,0.71,0.100,0.765,-35.4,10.216,66.588,0.77,0.32,0.1,-395.0,14.564,92226.640,786.739,14.565,92226.460,786.850,22056,0.450,786.850,-5352069.500,22.367,1.598,0.0,0.0,0.0,0.0,4.60,0.271
22099,2,22099,43,0.10,0.157,0.482,-34.434,10.105,66.547,0.12,0.27,0.3,-395.0,0.35,0.236,0.463,-34.419,10.26,66.603,0.0,0.17,0.6,-395.0,14.563,92226.359,786.701,14.570,92225.398,786.742,22099,0.482,786.742,-5372129.500,-2.523,2.81,0.0,0.0,0.0,0.0,4.60,0.290
22135,2,22135,36,0.4,0.166,0.511,-34.539,10.58,66.653,0.11,0.26,0.2,-395.0,0.0,0.366,0.442,-34.551,9.792,66.793,0.4,0.28,0.1,-395.0,14.565,92225.664,786.747,14.570,92227.679,786.755,22135,0.511,786.755,-5390009.0,0.376,1.988,0.0,0.0,0.0,0.0,4.60,0.307
22177,2,22177,42,0.14,0.209,0.532,-34.659,9.973,66.588,0.13,0.25,0.2,-395.0,0.14,0.315,0.449,-34.726,9.441,66.398,0.7,0.27,0.2,-395.0,14.567,92226.304,786.608,14.565,92228.742,786.647,22177,0.532,786.647,-5411924.0,-2.583,2.84,0.0,0.0,0.0,0.0,4.54,0.320
22213,2,22213,36,0.0,0.199,0.457,-34.674,9.909,66.600,0.12,0.27,0.3,-395.0,0.21,0.21,0.169,-34.668,10.70,66.617,0.5,0.32,0.3,-395.0,14.569,92226.500,786.586,14.574,92224.187,785.935,22213,0.457,785.935,-5429752.0,-19.760,3.455,0.0,0.0,0.0,0.0,4.73,0.275
22256,2,22256,43,0.18,0.231,0.373,-34.618,9.824,66.644,0.4,0.25,0.3,-395.0,0.21,0.258,0.341,-34.726,9.792,66.807,0.5,0.20,0.1,-395.0,14.570,92227.625,786.523,14.570,92232.93,786.537,22256,0.373,786.537,-5447620.0,13.982,1.704,0.0,0.0,0.0,0.0,4.47,0.224
22292,2,22292,36,0.17,0.139,0.361,-34.665,9.809,66.577,0.5,0.26,0.2,-395.0,0.28,0.222,0.406,-34.653,9.953,66.267,0.1,0.25,0.3,-395.0,14.569,92227.382,786.444,14.565,92224.187,786.346,22292,0.361,786.346,-5460848.0,-5.306,2.189,0.0,0.0,0.0,0.0,4.73,0.217
22334,2,22334,42,0.18,0.109,0.343,-34.717,9.824,66.568,0.3,0.25,0.3,-395.0,0.7,0.215,0.348,-34.814,9.865,66.749,0.3,0.23,0.7,-395.0,14.570,92227.109,786.384,14.574,92226.320,786.454,22334,0.343,786.454,-5475647.500,2.583,1.928,0.0,0.0,0.0,0.0,4.73,0.206
22382,2,22382,48,0.33,0.51,0.312,-34.653,9.938,66.492,0.1,0.24,0.3,-395.0,0.86,0.28,0.298,-34.405,10.11,66.18,0.0,0.21,0.3,-395.0,14.571,92227.140,786.506,14.570,92228.890,787.261,22382,0.312,787.261,-5491389.500,16.799,1.664,0.0,0.0,0.0,0.0,4.60,0.188
22424,2,22424,42,0.27,0.100,0.330,-34.571,9.880,66.515,0.0,0.24,0.4,-395.0,0.7,0.222,0.255,-34.258,9.777,66.734,0.5,0.29,0.4,-395.0,14.570,92227.375,786.485,14.570,92225.398,785.827,22424,0.330,785.827,-5504892.500,-34.134,-40.598,0.0,0.0,0.0,0.0,4.60,0.198
22460,2,22460,36,0.25,0.117,0.348,-34.612,9.926,66.495,0.0,0.25,0.5,-395.0,0.244,0.344,0.434,-34.931,10.26,66.705,0.3,0.26,0.6,-395.0,14.568,92228.289,786.425,14.560,92236.656,786.237,22460,0.348,786.237,-5517112.500,11.379,1.745,0.0,0.0,0.0,0.0,4.60,0.210
22508,2,22508,48,0.5,0.225,0.358,-34.551,9.871,66.565,0.0,0.24,0.5,-395.0,0.186,0.315,0.456,-34.346,9.675,66.617,0.7,0.22,0.3,-395.0,14.569,92229.453,786.362,14.570,92229.960,786.31,22508,0.358,786.31,-5534095.0,-4.272,2.147,0.0,0.0,0.0,0.0,4.60,0.216
22544,2,22544,36,0.130,0.107,0.364,-34.583,10.14,66.539,0.4,0.18,0.0,-395.0,0.631,-1.450,0.377,-34.975,10.581,66.617,0.14,0.6,0.13,-395.0,14.567,92229.265,786.463,14.565,92225.398,786.960,22544,0.364,786.960,-5547116.0,25.804,1.563,0.0,0.0,0.0,0.0,4.60,0.219
22588,2,22588,44,0.73,0.312,0.213,-34.571,10.35,66.612,0.6,0.21,0.29,-395.0,0.933,0.997,0.455,-34.346,10.114,66.384,0.53,0.32,0.147,-395.0,14.567,92229.265,786.318,14.570,92228.890,786.537,22588,0.213,786.537,-5559840.500,-9.631,2.406,0.0,0.0,0.0,0.0,4.41,0.128
22624,2,22624,36,0.542,0.58,0.292,-34.615,10.55,66.603,0.29,0.45,0.71,-395.0,-3.72,1.493,0.650,-34.478,9.880,66.691,0.173,0.153,0.510,-395.0,14.566,92229.476,786.504,14.565,92226.460,786.755,22624,0.292,786.755,-5568959.500,6.72,1.845,0.0,0.0,0.0,0.0,4.60,0.176
22666,2,22666,42,0.290,1.437,1.791,-33.256,10.277,66.468,0.15,0.23,0.215,-395.0,1.507,7.824,9.988,-28.135,11.137,66.33,0.219,0.84,0.722,-395.0,14.569,92227.414,786.567,14.574,92226.320,786.550,22666,1.791,786.550,-5537479.500,-4.882,2.171,0.0,0.0,0.0,0.0,4.60,1.79
22709,2,22709,43,1.33,1.330,2.8,-33.934,10.374,66.474,0.5,0.47,0.474,-395.0,6.431,0.215,0.627,-37.737,10.157,66.647,0.56,0.139,1.299,-395.0,14.568,92227.382,786.668,14.565,92229.812,786.537,22709,2.8,786.537,-5455769.500,0.315,2.9,0.0,0.0,0.0,0.0,4.60,1.209
22746,2,22746,37,1.431,1.938,1.853,-34.928,10.35,66.591,0.17,0.129,0.758,-395.0,1.356,1.586,-1.152,-39.944,8.886,67.202,0.43,0.404,1.405,-395.0,14.568,92227.585,786.504,14.565,92226.460,786.141,22746,1.853,786.141,-5384318.500,-10.705,2.473,0.0,0.0,0.0,0.0,4.60,1.116
22788,2,22788,42,1.585,2.212,1.806,-36.197,9.950,66.875,0.11,0.115,0.775,-395.0,1.701,0.373,0.218,-40.689,9.690,67.801,0.24,0.33,0.62,-395.0,14.569,92227.773,786.425,14.574,92229.812,786.141,22788,1.806,786.141,-5307463.500,0.0,2.0,0.0,0.0,0.0,0.0,4.60,1.88
22825,2,22825,37,2.22,1.745,1.809,-37.313,9.941,66.927,0.48,0.121,0.415,-395.0,0.882,0.839,0.635,-40.61,9.836,66.954,0.10,0.181,-1.287,-395.0,14.570,92228.898,786.384,14.570,92232.93,786.550,22825,1.809,786.550,-5240581.0,11.72,1.750,0.0,0.0,0.0,0.0,4.60,1.89
22867,2,22867,42,1.348,0.900,0.285,-39.371,9.690,67.138,0.16,0.87,0.299,-395.0,-1.866,3.596,0.485,-38.424,9.880,67.85,0.58,0.255,-2.854,-395.0,14.569,92229.390,786.384,14.570,92228.742,786.550,22867,0.285,786.550,-5208588.500,0.0,2.0,0.0,0.0,0.0,0.0,4.54,0.172
22930,2,22930,63,0.709,1.161,0.551,-38.187,9.807,67.316,0.3,0.40,-1.190,-395.0,3.237,1.91,0.700,-31.818,10.742,67.538,0.122,0.94,-3.155,-395.0,14.568,92228.742,786.403,14.560,92226.609,786.633,22930,0.551,786.633,-5234948.500,1.308,1.962,0.0,0.0,0.0,0.0,4.54,0.332
22972,2,22972,42,0.152,1.361,0.409,-34.139,10.862,67.38,0.28,0.80,-1.787,-395.0,-1.428,2.584,0.442,-19.701,14.162,65.814,0.114,0.202,-1.578,-395.0,14.565,92230.140,786.501,14.551,92233.453,786.633,22972,0.409,786.633,-5255114.500,0.0,2.0,0.0,0.0,0.0,0.0,4.60,0.246
23008,2,23008,36,0.308,2.21,0.905,-32.455,10.836,67.59,0.24,0.19,-1.773,-395.0,2.483,3.675,-2.265,-32.271,9.558,67.904,0.46,0.270,0.9,-395.0,14.563,92230.632,786.559,14.565,92232.234,786.428,23008,0.905,786.428,-5278783.0,-5.683,2.205,0.0,0.0,0.0,0.0,4.54,0.545
23050,2,23050,42,0.926,2.176,0.831,-31.292,10.704,67.626,0.9,0.40,-1.516,-395.0,2.203,0.64,0.262,-34.244,9.178,69.789,0.86,0.80,0.1,-395.0,14.562,92229.289,786.597,14.565,92225.398,786.742,23050,0.831,786.742,-5315260.0,7.468,1.816,0.0,0.0,0.0,0.0,4.60,0.500
23086,2,23086,36,1.531,1.381,0.792,-30.485,10.587,68.99,0.44,0.3,0.943,-395.0,1.162,0.380,0.291,-34.390,9.295,69.453,0.116,0.37,0.10,-395.0,14.560,92230.664,786.597,14.560,92235.585,786.550,23086,0.792,786.550,-5344484.500,-5.320,2.189,0.0,0.0,0.0,0.0,4.60,0.477
23129,2,23129,43,1.58,1.867,0.752,-30.990,10.309,68.491,0.0,0.2,0.157,-395.0,0.868,3.524,0.499,-34.346,9.353,69.497,0.96,0.122,0.773,-395.0,14.562,92231.984,786.600,14.570,92233.304,786.647,23129,0.752,786.647,-5377694.0,2.245,1.936,0.0,0.0,0.0,0.0,4.60,0.453
23165,2,23165,36,0.740,0.660,0.526,-34.121,9.593,69.234,0.6,0.11,0.708,-395.0,-3.14,-3.452,0.684,-35.355,10.581,69.526,0.147,0.132,2.751,-395.0,14.567,92231.46,786.581,14.574,92228.742,786.537,23165,0.526,786.537,-5400716.500,-3.58,2.101,0.0,0.0,0.0,0.0,4.60,0.317
23208,2,23208,43,1.905,0.373,0.175,-34.741,8.798,69.415,0.45,0.59,1.330,-395.0,8.305,-1.493,1.244,-35.369,5.583,68.810,0.309,0.510,3.119,-395.0,14.568,92232.390,786.504,14.570,92238.929,786.45,23208,0.175,786.45,-5408275.0,-11.433,2.522,0.0,0.0,0.0,0.0,4.47,0.105
23244,2,23244,36,0.10,0.574,0.179,-29.330,10.710,68.59,0.55,0.134,2.353,-395.0,-7.372,-1.69,0.241,-7.190,18.737,63.7,0.135,0.455,5.109,-395.0,14.570,92233.281,786.444,14.574,92229.812,786.442,23244,0.179,786.442,-5401888.500,11.18,1.751,0.0,0.0,0.0,0.0,4.47,0.108
23287,2,23287,43,-4.683,0.953,1.320,-31.759,15.819,69.964,0.103,0.33,2.542,-395.0,-22.203,-2.275,5.415,-46.536,34.843,78.982,0.121,0.875,0.955,-395.0,14.572,92233.492,786.381,14.574,92236.656,786.237,23287,1.320,786.237,-5369628.0,-4.770,2.167,0.0,0.0,0.0,0.0,4.41,0.795
23323,2,23323,36,-8.84,0.690,-1.801,-31.113,23.785,71.537,0.66,0.50,2.134,-395.0,-16.137,4.838,-16.112,-31.116,49.181,77.360,0.86,0.295,-1.261,-395.0,14.574,92232.796,786.299,14.579,92229.812,786.237,23323,-1.801,786.237,-5378282.0,0.0,2.0,0.0,0.0,0.0,0.0,4.41,-1.85
23365,2,23365,42,-7.530,0.90,-2.71,-31.967,29.108,72.648,0.93,0.150,1.694,-395.0,0.244,0.452,0.664,-39.622,37.196,75.80,0.10,0.369,0.548,-395.0,14.574,92233.7,786.220,14.574,92229.812,786.141,23365,-2.71,786.141,-5459621.500,-2.285,2.73,0.0,0.0,0.0,0.0,4.54,-1.247
23401,2,23401,36,-8.986,0.249,-2.443,-32.703,35.127,73.548,0.29,0.77,1.32,-395.0,1.26,0.208,0.614,-39.52,35.676,73.311,0.11,0.142,0.188,-395.0,14.575,92231.179,786.299,14.574,92229.812,786.442,23401,-2.443,786.442,-5540892.500,8.365,1.799,0.0,0.0,0.0,0.0,4.54,-1.471
23652,2,23652,251,-8.288,0.143,-2.912,-37.214,41.411,76.863,0.10,0.41,0.24,-395.0,-3.883,-3.36,-2.588,-29.742,50.160,79.581,0.39,0.136,0.176,-395.0,14.576,92231.625,786.262,14.579,92232.39,786.254,23652,-2.912,786.254,-6213118.500,0.747,2.22,0.0,0.0,0.0,0.0,4.54,-1.754
23688,2,23688,36,-3.887,0.284,-4.94,-33.639,44.513,77.152,0.22,0.116,0.253,-395.0,0.200,0.136,0.492,-28.661,50.350,80.429,0.45,0.87,0.191,-395.0,14.561,92230.671,786.249,14.501,92231.890,786.171,23688,-4.94,786.171,-6339252.500,-2.305,2.74,0.0,0.0,0.0,0.0,4.60,-2.466
23733,2,23733,45,0.625,0.666,0.915,-33.262,44.799,77.664,0.6,0.49,0.12,-395.0,0.172,0.86,0.219,-29.231,50.613,79.918,0.2,0.40,0.56,-395.0,14.552,92229.906,786.219,14.533,92225.976,786.88,23733,0.915,786.88,-6451986.0,-1.833,2.58,0.0,0.0,0.0,0.0,4.60,0.551
23770,2,23770,37,0.660,0.569,0.905,-31.81,47.427,78.678,0.3,0.37,0.162,-395.0,0.416,0.28,0.614,-28.719,50.336,80.152,0.2,0.66,0.199,-395.0,14.547,92232.31,786.154,14.547,92240.437,785.814,23770,0.905,785.814,-6485687.500,-7.419,2.286,0.0,0.0,0.0,0.0,4.54,0.545
23814,2,23814,44,-1.73,0.424,-1.191,-28.851,50.391,80.32,0.9,0.47,0.191,-395.0,-1.40,0.933,-2.42,-27.901,50.496,80.78,0.54,0.96,0.331,-395.0,14.542,92231.843,786.91,14.551,92228.890,786.127,23814,-1.191,786.127,-6531829.500,7.127,1.823,0.0,0.0,0.0,0.0,4.60,0.717
23851,2,23851,37,0.173,0.104,0.588,-28.249,50.590,80.111,0.11,0.13,0.173,-395.0,0.617,-1.435,0.426,-26.731,51.154,79.976,0.68,0.31,0.86,-395.0,14.539,92232.335,785.986,14.565,92234.515,785.730,23851,0.588,785.730,-6564761.0,-10.733,2.474,0.0,0.0,0.0,0.0,4.60,0.354
23895,2,23895,44,0.4,1.702,2.54,-18.599,44.963,78.722,0.246,0.25,0.130,-395.0,0.689,8.901,12.723,19.584,22.215,73.487,1.248,0.146,0.22,-395.0,14.554,92232.382,786.21,14.574,92232.93,786.346,23895,2.54,786.346,-6532508.500,13.983,1.704,0.0,0.0,0.0,0.0,4.60,1.237
23931,2,23931,36,0.600,1.645,1.418,-7.106,38.377,75.328,0.238,0.25,0.164,-395.0,-2.849,0.200,-3.399,28.237,17.684,62.949,0.41,0.40,0.229,-395.0,14.564,92234.484,786.56,14.583,92236.507,786.262,23931,1.418,786.262,-6469992.0,-2.321,2.74,0.0,0.0,0.0,0.0,4.66,0.854
24248,2,24248,317,0.381,2.799,1.185,3.934,32.212,72.513,0.283,0.2,0.93,-395.0,0.674,5.800,-1.777,26.483,19.511,66.77,0.225,0.71,0.158,-395.0,14.573,92233.234,786.187,14.593,92234.171,786.472,24248,1.185,786.472,-6057173.0,0.662,1.980,0.0,0.0,0.0,0.0,4.60,0.714
24284,2,24284,36,0.162,3.270,1.583,14.910,26.270,69.874,0.289,0.12,0.10,-395.0,1.679,3.287,0.54,26.980,20.783,66.881,0.81,0.144,0.80,-395.0,14.567,92234.898,786.79,14.519,92237.234,785.583,24284,1.583,785.583,-6007319.500,-24.703,4.862,0.0,0.0,0.0,0.0,4.60,0.953
24426,2,24426,142,0.86,3.579,1.389,25.217,20.695,67.141,0.287,0.22,0.214,-395.0,0.236,0.107,0.542,24.802,23.282,66.311,0.74,0.81,-1.107,-395.0,14.563,92233.656,786.213,14.547,92228.257,786.402,24426,1.389,786.402,-5796200.500,5.769,1.852,0.0,0.0,0.0,0.0,4.73,0.837
24462,2,24462,36,0.55,2.199,-1.306,26.772,20.789,65.662,0.25,0.26,0.646,-395.0,0.21,2.2,0.757,27.360,22.683,66.91,0.64,0.391,-2.134,-395.0,14.556,92233.984,786.227,14.537,92233.742,786.416,24462,-1.306,786.416,-5794698.0,0.376,1.988,0.0,0.0,0.0,0.0,4.54,0.786
24532,2,24532,70,0.732,2.673,0.798,27.196,21.648,66.293,0.45,0.4,-1.10,-395.0,1.91,2.167,0.858,30.356,21.981,66.106,0.57,0.71,-2.52,-395.0,14.550,92231.828,786.260,14.556,92225.687,786.428,24532,0.798,786.428,-5868357.0,0.177,1.994,0.0,0.0,0.0,0.0,4.60,0.480
