millis(),currentState,calculatedFlightTime,IMUAcc.acceleration.x,IMUAcc.acceleration.y,IMUAcc.acceleration.z,IMUGyro.gyro.x,IMUGyro.gyro.y,IMUGyro.gyro.z,IMUTher.temperature,BARO.readTemperature,BARO.readPressure,BARO.readAltitude,orientation.actual.roll,orientation.actual.pitch,orientation.actual.yaw
24296.720.-1-6.-340.50.-100.-124.939.4193044.71713.390.00.00.0
47524757.420.-38-6.-160.40.-110.-95.09.4393044.61712.520.00.00.0
53325337.290.-17-6.-580.50.-70.-65.129.4593048.95713.210.00.00.0
57925797.780.10-6.-310.30.-100.-95.09.4693040.19713.310.00.00.0
62226227.260.-13-6.-220.40.-40.-65.129.4693047.78713.110.00.00.0
66826687.760.-8-6.-80.40.-30.-55.69.4793048.85713.120.00.00.0
71427147.140.-21-6.-260.10.-30.-85.189.4893043.39713.600.00.00.0
76027607.380.-41-5.-880.20.-80.-35.129.4893041.17713.610.00.00.0
80628068.340.-33-5.-640.30.-60.-75.129.5093040.7713.220.00.00.0
85228527.100.-19-6.-250.50.-100.-95.129.5093045.50713.610.00.00.0
89828987.870.-47-5.-870.50.-80.-95.69.4993042.21712.930.00.00.0
94429447.870.-18-6.-10.40.-90.-105.129.5093047.68713.120.00.00.0
98729877.360.-18-5.-920.60.-130.-115.69.5093052.5713.510.00.00.0
1039210397.830.0-5.-960.50.-30.-85.129.4993041.14713.320.00.00.0
1085210857.970.-20-6.-460.40.-100.-105.129.5093043.29713.510.00.00.0
1131211317.560.-21-6.-170.40.-80.-85.129.5093048.76713.410.00.00.0
1177211777.670.-32-6.-220.50.-90.-95.189.5193041.10713.320.00.00.0
1223212237.360.-23-6.-160.40.-110.-105.129.5193043.29713.320.00.00.0
1269212697.410.-24-5.-960.60.-110.-85.189.5193038.92713.810.00.00.0
1317213177.980.-16-5.-970.60.-90.-105.129.5093045.47713.220.00.00.0
1363213637.350.-14-6.-100.60.-120.-95.129.5193045.47713.710.00.00.0
1409214097.780.14-6.-250.30.00.-75.189.5193046.55713.800.00.00.0
1455214558.170.-76-5.-420.30.-130.-105.129.5293048.70713.320.00.00.0
1501215017.510.-14-6.-440.50.-70.-85.189.5293045.47713.510.00.00.0
1551215517.570.-60-6.-250.20.-70.-105.129.5193038.92713.800.00.00.0
1597215977.670.-18-6.-340.40.-130.-95.189.5293045.44713.420.00.00.0
1643216437.600.4-6.-330.30.-110.-95.129.5093038.92713.320.00.00.0
1686216868.540.-51-5.-830.50.-60.-85.189.5193048.73713.610.00.00.0
1732217327.830.-37-5.-990.50.-110.-125.129.5193041.7713.120.00.00.0
1778217787.40.-21-6.-550.40.-70.-95.189.5293046.55713.420.00.00.0
1824218247.530.-25-6.-20.50.-90.-95.189.5193040.3713.130.00.00.0
1870218707.650.-21-6.-80.50.-110.-105.189.5193045.41713.320.00.00.0
1916219167.590.-21-6.-130.40.-90.-85.189.5393044.33713.420.00.00.0
1962219627.670.-22-6.-180.50.-90.-85.189.5193042.15713.710.00.00.0
2008220087.590.-21-6.-20.40.-80.-85.189.5193050.88712.930.00.00.0
2056220567.650.-22-5.-980.50.-90.-95.259.5293044.33713.320.00.00.0
2102221027.590.-22-6.-180.50.-90.-95.189.5193037.82713.130.00.00.0
2148221487.710.-26-6.-30.40.-100.-115.189.5293034.53713.610.00.00.0
2194221947.550.-21-6.-70.40.-60.-85.189.5293041.7713.320.00.00.0
2240222407.520.-20-6.-80.40.-100.-105.189.5293044.33712.840.00.00.0
2286222867.570.-20-6.-80.40.-90.-95.259.5293040.0713.710.00.00.0
2332223327.640.-21-6.-210.40.-80.-105.259.5193044.33713.710.00.00.0
2380223807.620.-24-6.-150.40.-90.-105.259.5393050.88712.930.00.00.0
2426224267.470.-18-6.-260.40.-90.-95.189.5293046.55713.710.00.00.0
2472224728.450.-43-5.-350.50.-140.-75.189.5293046.52712.930.00.00.0
2518225187.580.-24-6.-160.40.250.-95.189.5293045.44713.30.00.00.0
2569225697.460.-16-6.-140.30.-50.-105.259.5193049.81713.520.00.00.0
2615226157.30.-18-6.-890.60.-90.-95.189.5293042.15714.290.00.00.0
2661226617.510.-22-6.-200.50.-90.-95.319.5193045.44713.710.00.00.0
2707227077.440.-22-6.-230.50.-90.-85.259.5193047.62713.710.00.00.0
2750227507.670.-23-6.-210.50.-80.-95.259.5193045.41713.520.00.00.0
2796227967.850.-15-6.-310.30.-70.-95.259.5293048.70713.130.00.00.0
2842228427.480.-18-6.-160.50.-90.-105.259.5293047.59712.930.00.00.0
2888228887.490.-25-6.-210.40.-100.-95.259.5393047.59712.740.00.00.0
2934229347.660.-30-6.-190.40.-100.-105.259.5393044.30713.520.00.00.0
2980229807.920.-89-5.-840.60.-90.-115.259.5393047.59713.620.00.00.0
3026230267.660.-46-5.-990.50.-80.-115.319.5293037.78713.130.00.00.0
3089230897.720.-12-6.-20.30.-60.-75.259.5193041.7713.710.00.00.0
3135231357.480.-35-6.-550.40.-90.-95.259.5193042.18713.910.00.00.0
3181231817.650.-27-6.-20.40.-60.-85.259.5293045.41713.230.00.00.0
3227232277.560.-25-6.-360.60.-70.-115.319.5293042.15713.610.00.00.0
3273232737.210.-32-6.-570.60.-110.-95.189.5393044.30714.00.00.00.0
3319233197.790.-48-6.-230.40.-70.-105.259.5293042.12713.330.00.00.0
3365233657.650.-3-6.-170.40.-70.-115.259.5493039.97713.230.00.00.0
3411234117.560.-12-6.-420.40.-90.-105.259.5193050.82713.620.00.00.0
3454234547.480.-3-6.-100.20.-140.-35.319.5493048.67713.520.00.00.0
3500235007.530.-15-6.-250.30.-80.-65.319.5393041.1712.930.00.00.0
3546235467.930.-27-6.-30.40.-80.-95.319.5393054.10713.230.00.00.0
3599235997.580.-17-6.-250.50.-110.-105.259.5293047.59713.710.00.00.0
3645236457.600.-16-6.-220.50.-90.-115.259.5393037.78712.640.00.00.0
3691236917.480.-19-6.-490.20.-20.-75.319.5293043.23713.520.00.00.0
3737237378.260.32-6.-430.30.-80.-55.259.5393046.46712.940.00.00.0
3783237837.320.-51-5.-880.30.00.-115.319.5393045.78713.200.00.00.0
4017240177.650.-21-5.-750.40.-80.-85.319.4593047.84713.310.00.00.0
4063240637.830.-27-5.-810.50.-90.-105.379.4793045.57713.890.00.00.0
4636246367.620.-20-6.-180.40.-90.-95.319.4093039.27713.780.00.00.0
5025250257.530.-24-6.-280.40.-120.-85.259.4093045.82713.390.00.00.0
5071250717.510.-27-6.-170.40.-90.-95.319.4493048.95712.910.00.00.0
5117251177.350.-11-5.-880.40.-90.-95.319.4693046.71713.600.00.00.0
5163251637.60.-30-6.-680.60.-110.-65.259.4993044.46713.700.00.00.0
5216252167.560.-24-6.-170.40.-60.-95.259.5093041.14713.320.00.00.0
5262252627.540.-28-6.-310.40.-90.-105.319.5193045.47712.730.00.00.0
5308253087.590.-22-6.-210.40.-80.-95.319.5293049.81713.420.00.00.0
5354253547.640.-26-6.-260.40.-90.-85.379.5293045.44713.130.00.00.0
5400254007.600.-25-6.-160.50.-100.-105.319.5293048.67713.520.00.00.0
5446254467.590.-27-5.-940.40.-20.-95.379.5393046.49713.320.00.00.0
5492254927.510.-31-6.-460.20.-60.-85.319.5393049.75713.30.00.00.0
5538255387.630.-31-6.-90.20.-80.-85.319.5393047.59713.320.00.00.0
5581255817.820.-23-5.-920.30.-100.-85.319.5393044.33713.320.00.00.0
5627256277.720.-27-6.-100.50.-120.-105.319.5493044.27713.130.00.00.0
5674256747.560.-28-6.-110.50.-100.-95.319.5393043.20713.520.00.00.0
5724257247.450.-19-6.-440.40.-70.-95.319.5493046.49713.230.00.00.0
5770257707.650.-28-6.-160.40.-80.-95.319.5393045.38713.30.00.00.0
5816258167.880.-22-6.-290.40.-100.-95.439.5493039.91713.330.00.00.0
5862258628.350.-33-6.-120.70.-150.-115.379.5293051.92712.940.00.00.0
5908259107.60.-17-6.-470.40.-140.-85.319.5393044.30713.620.00.00.0
5951259517.470.-22-5.-970.50.-100.-105.319.5493050.85713.320.00.00.0
5997259977.730.-26-6.-10.50.-80.-115.379.5493039.91713.230.00.00.0
6043260437.520.-22-6.-40.50.-80.-105.319.5593044.27713.810.00.00.0
6089260897.740.-29-6.-290.50.-90.-105.319.5493049.71713.430.00.00.0
6135261357.360.-17-6.-340.50.-90.-105.379.5493045.35713.130.00.00.0
6181261817.530.3-5.-700.40.-60.-105.379.5493037.72713.430.00.00.0
6231262317.700.-15-6.-350.30.-70.-95.439.5493051.86713.720.00.00.0
6274262747.490.-24-5.-970.50.-90.-95.439.5593044.27713.720.00.00.0
6320263207.780.-20-6.-880.50.-160.-105.379.5593044.27713.430.00.00.0
6366263667.330.-23-6.-310.50.-60.-95.379.5593038.80713.230.00.00.0
6412264127.450.-20-6.-30.40.-40.-85.439.5493044.27713.40.00.00.0
6458264587.710.-20-6.-30.40.-50.-95.379.5593042.9713.430.00.00.0
6504265047.560.-24-6.-30.50.-120.-105.379.5493044.24713.40.00.00.0
6550265507.430.-78-5.-710.50.-90.-105.379.5593045.35713.330.00.00.0
6596265966.90-1.-71-5.-350.110.-50.-65.319.5493036.65713.130.00.00.0
6639266397.170.98-7.-730.-130.-300.-85.379.5593040.98713.430.00.00.0
6686266867.700.90-6.-90.00.-70.-75.379.5593050.78713.330.00.00.0
6736267367.740.-9-6.-30.20.-60.-85.379.5493040.98713.910.00.00.0
6782267827.600.-17-5.-910.30.-60.-105.379.5493043.17713.520.00.00.0
6828268287.760.-28-6.-280.40.-70.-95.379.5593037.72713.910.00.00.0
6874268747.610.-29-6.-300.40.-90.-95.379.5593039.87713.330.00.00.0
6920269207.600.-29-6.-190.50.-90.-105.379.5693039.91713.430.00.00.0
6969269697.480.-34-6.-240.40.-100.-95.319.5493042.9714.110.00.00.0
7015270157.590.-35-6.-190.30.-90.-75.319.5593051.89712.850.00.00.0
7061270617.190.-20-6.-770.10.-90.-75.379.5593040.98713.230.00.00.0
7107271078.130.-50-5.-780.00.-80.-55.439.5593048.60713.430.00.00.0
7153271537.800.-31-5.-930.00.-80.-65.379.5593040.95713.230.00.00.0
7199271997.750.-37-5.-550.20.-60.-65.379.5593049.68713.330.00.00.0
7258272587.860.-32-6.-350.40.-120.-75.439.5493040.98713.330.00.00.0
7304273047.510.-30-6.-240.50.-80.-95.439.5493041.1714.10.00.00.0
7347273477.260.-24-6.-530.60.-90.-95.439.5393049.71713.130.00.00.0
7393273937.790.-34-6.-680.20.-50.-95.379.5593050.78712.940.00.00.0
7439274399.40.-8-5.-60.50.-70.-195.379.5493049.71713.720.00.00.0
7485274856.810.29-6.-890.60.-100.-255.379.5593051.86713.530.00.00.0
7531275316.60.-19-5.-800.20.-90.-165.379.5693039.87713.430.00.00.0
7577275776.270.-16-5.-590.60.-80.-35.379.5593043.14713.330.00.00.0
7623276236.130.-17-5.-480.120.-100.85.379.5593045.32713.620.00.00.0
7669276696.630.42-2.-260.130.-60.95.439.5593046.42713.230.00.00.0
7713277136.750.-24-6.-860.50.-90.-115.379.5493048.57713.430.00.00.0
7763277637.620.-17-6.-140.40.-40.-125.439.5593045.35713.230.00.00.0
7809278097.470.-19-6.-530.40.-100.-105.439.5593044.24713.620.00.00.0
7855278557.760.-43-5.-470.40.-100.-95.439.5693045.32713.140.00.00.0
7901279017.710.-36-6.-190.40.-100.-105.319.5593045.32712.850.00.00.0
7947279477.580.-32-6.-300.40.-100.-95.319.5593045.32713.40.00.00.0
7993279937.520.-36-6.-240.40.-80.-105.319.5693044.21712.850.00.00.0
8036280367.550.-32-6.-250.40.-90.-95.379.5793051.83713.140.00.00.0
8082280827.590.-32-6.-250.40.-100.-95.379.5693048.51713.240.00.00.0
8128281287.630.-34-6.-100.40.-80.-95.439.5793048.57713.340.00.00.0
8174281747.630.-33-6.-250.40.-100.-95.379.5693040.95713.920.00.00.0
8220282207.530.-29-6.-190.40.-90.-95.379.5793042.3713.230.00.00.0
8270282707.620.-26-6.-100.40.-90.-95.439.5693042.3712.850.00.00.0
8316283167.560.-31-6.-130.40.-80.-95.319.5693044.21713.920.00.00.0
8362283627.610.-33-6.-210.40.-90.-105.379.5593043.14713.140.00.00.0
8405284057.580.-29-6.-130.40.-80.-95.319.5693050.75714.10.00.00.0
8451284517.600.-32-6.-210.40.-90.-95.379.5693047.46714.20.00.00.0
8497284977.580.-27-6.-140.40.-90.-105.439.5693042.6713.40.00.00.0
8543285437.660.-28-6.-110.40.-90.-95.439.5693050.75712.850.00.00.0
8589285897.580.-27-6.-170.40.-90.-95.379.5693045.28712.660.00.00.0
8635286357.550.-27-6.-160.40.-90.-95.439.5693050.72713.240.00.00.0
8681286817.600.-30-6.-150.40.-90.-95.439.5693045.32713.340.00.00.0
8728287307.570.-33-6.-150.40.-90.-95.379.5793043.14713.720.00.00.0
8775287757.610.-30-6.-170.40.-90.-95.439.5693040.95713.330.00.00.0
8821288217.610.-30-6.-170.40.-90.-95.439.5593044.24713.140.00.00.0
8867288677.600.-25-6.-180.40.-90.-95.439.5693043.10713.140.00.00.0
8913289137.590.-26-6.-250.40.-90.-95.439.5693045.32712.950.00.00.0
8959289597.280.-11-5.-370.40.-70.-105.439.5693042.3713.340.00.00.0
9005290057.300.-29-5.-920.40.-90.-95.509.5693042.3713.340.00.00.0
9051290517.630.-31-6.-490.40.-80.-95.379.5693049.65713.340.00.00.0
9094290947.60.-23-5.-950.40.-80.-105.439.5793047.43713.340.00.00.0
9140291407.700.-37-5.-540.40.-60.-105.439.5693047.46713.140.00.00.0
9186291867.520.-18-6.-670.40.-100.-95.439.5793044.17713.40.00.00.0
9232292327.660.-28-6.-170.40.-90.-95.439.5793045.25713.240.00.00.0
9283292837.610.-30-6.-60.40.-80.-95.439.5693044.21713.720.00.00.0
9329293297.430.-29-6.-270.40.-90.-95.439.5693048.54713.430.00.00.0
9375293757.590.-27-6.-130.40.-90.-95.439.5793040.92713.920.00.00.0
9421294217.580.-28-6.-270.40.-90.-95.439.5693040.92713.630.00.00.0
9464294647.610.-28-6.-220.40.-90.-95.439.5793044.21713.630.00.00.0
9510295107.660.-31-6.-70.50.-90.-95.439.5793043.14713.240.00.00.0
9556295567.600.-30-6.-230.40.-90.-95.439.5793042.3713.630.00.00.0
9602296027.650.-27-6.-240.40.-90.-95.439.5793040.92713.920.00.00.0
9648296487.600.-33-6.-100.40.-90.-95.439.5793044.17713.240.00.00.0
9694296947.780.-40-6.-340.40.-80.-95.439.5793042.0713.630.00.00.0
9741297417.570.-26-6.-80.40.-70.-95.439.5793048.54713.530.00.00.0
9792297947.520.-22-6.-160.40.-100.-105.439.5793047.46713.430.00.00.0
9835298357.650.-30-6.-220.40.-70.-95.439.5693048.57713.920.00.00.0
9881298817.640.-33-6.-120.50.-80.-95.379.5793043.10713.920.00.00.0
9927299277.500.-23-6.-160.40.-80.-95.439.5793047.46713.140.00.00.0
9973299737.800.-38-5.-750.40.-90.-105.439.5793036.55713.240.00.00.0
100192100197.510.-25-6.-220.40.-90.-85.509.5793041.96713.240.00.00.0
100652100657.490.-28-6.-300.50.-100.-105.439.5793036.52713.440.00.00.0
101112101117.590.-26-6.-10.40.-50.-95.379.5893043.7713.340.00.00.0
101542101547.590.-33-6.-150.40.-80.-95.439.5893044.17713.630.00.00.0
102002102007.540.-40-6.-170.40.-80.-95.439.5893048.51713.240.00.00.0
102462102467.310.-29-6.-770.50.-90.-105.439.5893041.96713.340.00.00.0
103032103037.610.-40-6.-170.50.-100.-95.379.5893046.32712.950.00.00.0
103492103497.630.-32-6.-100.40.-80.-105.439.5893047.40713.540.00.00.0
103952103957.610.-36-6.-200.40.-90.-95.379.5993043.3712.760.00.00.0
104412104417.580.-33-6.-140.40.-80.-105.379.5993045.19713.340.00.00.0
104892104897.660.-33-6.-100.40.-90.-95.439.5893044.11713.340.00.00.0
105352105357.650.-33-6.-110.40.-90.-95.509.5893045.19713.250.00.00.0
105812105817.630.-32-6.-130.50.-90.-95.379.5993045.15713.440.00.00.0
106272106277.660.-32-6.-160.50.-80.-95.439.5993043.0713.340.00.00.0
106732106737.630.-29-6.-30.40.-80.-95.439.5993047.34713.150.00.00.0
107192107197.520.-35-6.-80.40.-90.-105.509.5993036.46712.660.00.00.0
107662107667.750.-29-6.-290.50.-80.-95.439.5993041.89713.150.00.00.0
108162108167.890.-29-5.-490.40.-70.-85.509.6093045.19713.540.00.00.0
108592108597.530.-23-5.-910.40.-100.-95.509.5993038.64713.930.00.00.0
109052109057.680.-33-6.-160.50.-90.-85.509.5993044.8713.150.00.00.0
109512109517.660.-34-6.-90.40.-80.-105.509.5993045.19712.370.00.00.0
109972109977.610.-30-6.-400.50.-100.-95.439.5993042.97713.340.00.00.0
110432110437.520.-34-6.-130.40.-80.-95.439.6093051.71713.740.00.00.0
110892110897.630.-36-6.-170.40.-90.-95.439.6193041.89713.930.00.00.0
111352111357.630.-30-6.-80.40.-90.-85.509.5993045.15713.450.00.00.0
111832111837.610.-33-6.-130.50.-90.-105.439.5993048.45713.540.00.00.0
112292112297.620.-31-6.-60.50.-90.-105.439.6093049.52713.350.00.00.0
112752112757.750.-39-5.-960.40.-70.-95.509.6093046.26713.740.00.00.0
113252113257.590.-37-6.-290.40.-80.-95.439.6093042.97713.350.00.00.0
113712113717.660.-33-6.-130.40.-80.-95.509.6193047.34713.350.00.00.0
114172114177.630.-29-6.-120.40.-100.-105.509.6093041.86713.640.00.00.0
114632114637.680.-37-6.-200.40.-70.-95.439.6093049.52712.770.00.00.0
115092115097.850.-44-6.-190.40.-80.-95.509.6093046.26713.350.00.00.0
115522115527.670.-30-6.-80.40.-90.-95.509.6093042.97713.540.00.00.0
115982115987.640.-29-6.-120.40.-90.-105.509.6093041.86713.640.00.00.0
116442116447.630.-33-6.-270.50.-100.-95.439.6193040.79713.60.00.00.0
116902116907.650.-34-6.-40.40.-90.-105.379.6193047.34713.540.00.00.0
117362117367.630.-30-6.-40.40.-90.-95.439.6193046.20713.450.00.00.0
117832117837.670.-34-6.-170.40.-90.-95.509.6193044.5714.420.00.00.0
118332118337.620.-35-6.-220.50.-100.-95.509.6093049.46712.470.00.00.0
118762118767.620.-32-6.-140.50.-90.-95.439.6293046.20713.250.00.00.0
119222119227.540.-31-5.-930.50.-80.-105.509.6293047.28714.30.00.00.0
119682119687.670.-47-5.-840.130.-70.-65.439.6193045.9713.350.00.00.0
120142120147.880.-21-5.-840.70.-80.-125.439.6293051.64713.60.00.00.0
120602120605.92-1.-73-7.-860.610.-60.-145.439.6193048.38713.740.00.00.0
121062121066.980.-37-6.-800.20.-60.-65.509.6193041.83713.450.00.00.0
121522121527.2-1.-11-6.-850.20.-100.-85.509.6193047.31713.550.00.00.0
122002122007.67-1.-1-5.-860.10.-130.-25.509.6293045.9713.350.00.00.0
122462122467.340.-40-6.-270.-10.-100.-95.439.6393047.31713.450.00.00.0
122922122928.350.74-5.-80.00.-80.-105.439.6293039.65713.450.00.00.0
123422123427.820.-35-5.-930.70.-120.-75.439.6293047.28713.150.00.00.0
123882123887.590.-48-6.-10.20.-80.-85.439.6193046.20713.60.00.00.0
124342124347.810.-58-6.-100.40.-120.-85.509.6293046.20713.550.00.00.0
124802124807.580.-44-6.-530.40.-100.-125.439.6393045.9713.740.00.00.0
125262125267.760.-43-5.-820.20.-40.-115.439.6293042.94712.860.00.00.0
125692125697.670.-43-6.-80.40.-90.-105.439.6293048.38712.960.00.00.0
126152126157.560.-41-5.-970.40.-80.-95.439.6193042.91713.350.00.00.0
126612126617.620.-46-6.-90.40.-90.-95.439.6193048.35712.870.00.00.0
127072127077.670.-44-6.-90.40.-90.-95.439.6293045.6712.970.00.00.0
127532127537.610.-43-6.-100.40.-90.-95.439.6293047.24713.250.00.00.0
128002128007.630.-45-6.-100.40.-90.-95.569.6393043.98713.740.00.00.0
138972138977.670.-36-6.-120.40.-90.-95.509.4993046.64712.730.00.00.0
139532139537.570.-41-6.-120.40.-90.-95.439.5293049.78712.550.00.00.0
139992139997.600.-44-6.-100.40.-90.-95.509.5593047.50713.140.00.00.0
140452140457.620.-46-6.-90.40.-90.-95.509.5893034.34713.150.00.00.0
140912140917.650.-47-6.-140.40.-90.-95.439.5993052.81713.440.00.00.0
141372141377.680.-44-6.-110.40.-90.-95.439.6093046.23712.960.00.00.0
141832141837.640.-38-6.-30.40.-90.-95.439.6093044.1713.250.00.00.0
142292142297.650.-43-6.-110.40.-90.-105.509.6293050.53713.740.00.00.0
142752142757.610.-42-6.-50.40.-80.-95.509.6293047.28713.250.00.00.0
143182143187.630.-40-6.-30.40.-90.-105.509.6293049.46713.450.00.00.0
143642143647.640.-46-6.-160.40.-90.-95.509.6393041.80713.360.00.00.0
144102144107.630.-44-5.-970.40.-90.-95.509.6293046.14713.650.00.00.0
144602144607.620.-43-6.-130.40.-90.-95.509.6393046.14712.870.00.00.0
145062145067.640.-42-6.-90.40.-90.-95.569.6393040.66713.260.00.00.0
145522145527.650.-41-6.-100.40.-90.-105.569.6393047.21713.60.00.00.0
145982145987.620.-40-6.-190.40.-90.-95.569.6493048.32713.260.00.00.0
146412146417.590.-44-6.-60.40.-80.-95.569.6493038.47713.750.00.00.0
146872146877.630.-48-6.-90.40.-100.-105.509.6493043.95712.970.00.00.0
147332147337.610.-46-6.-100.40.-90.-95.509.6493040.66713.360.00.00.0
147792147797.630.-41-6.-130.40.-90.-95.569.6493046.10713.260.00.00.0
148252148257.640.-42-5.-990.40.-80.-105.509.6593045.0713.460.00.00.0
148712148717.610.-40-6.-70.40.-90.-95.629.6493046.10713.170.00.00.0
149182149187.680.-39-6.-80.40.-90.-95.569.6593048.25713.560.00.00.0
149682149687.570.-44-6.-20.40.-90.-95.569.6493046.14713.160.00.00.0
150112150117.650.-44-6.-100.40.-80.-95.509.6493049.39713.260.00.00.0
150572150577.610.-45-6.-120.40.-80.-95.569.6493046.10713.650.00.00.0
151032151037.610.-43-6.-80.40.-90.-95.509.6493039.55713.70.00.00.0
151492151497.690.-41-6.-100.40.-90.-105.509.6593046.10713.360.00.00.0
151952151957.620.-41-6.-90.40.-90.-95.569.6493043.89713.170.00.00.0
152412152417.570.-44-6.-30.40.-90.-95.569.6593043.89713.460.00.00.0
152872152877.630.-44-6.00.40.-90.-105.569.6593043.89713.460.00.00.0
153302153307.620.-40-6.-190.40.-80.-95.509.6693037.33712.970.00.00.0
153762153767.670.-44-6.-100.40.-90.-95.509.6593044.96713.560.00.00.0
154222154227.650.-44-6.-120.40.-90.-105.569.6593046.7713.650.00.00.0
154732154737.570.-42-6.-70.40.-90.-95.569.6693043.89713.750.00.00.0
155192155197.570.-46-6.-110.40.-90.-95.569.6593050.43713.850.00.00.0
155652155657.650.-46-6.-110.50.-90.-105.509.6593042.78713.750.00.00.0
156112156117.650.-46-6.-80.40.-80.-95.439.6693044.96713.460.00.00.0
156572156577.610.-48-6.-90.40.-90.-105.569.6593042.78713.360.00.00.0
157002157007.620.-43-6.-110.40.-90.-95.569.6593043.89713.170.00.00.0
157462157467.610.-39-6.-150.40.-90.-95.569.6593039.52713.270.00.00.0
157922157927.590.-38-6.-100.40.-80.-95.569.6593044.96712.970.00.00.0
158382158387.600.-39-6.-150.40.-90.-105.569.6593044.96714.240.00.00.0
158842158847.690.-46-6.-50.40.-80.-95.569.6693046.3713.370.00.00.0
159312159317.630.-46-6.-100.40.-80.-95.569.6693040.60713.360.00.00.0
159812159817.650.-42-6.-120.40.-80.-95.569.6593043.89713.650.00.00.0
160242160247.610.-40-6.-70.40.-80.-95.569.6693040.63713.70.00.00.0
160702160707.610.-45-6.-130.40.-90.-95.509.6693047.14713.660.00.00.0
161162161167.630.-45-6.-140.40.-80.-95.629.6693051.51712.970.00.00.0
161622161627.670.-53-6.-140.40.-90.-95.569.6593050.37712.490.00.00.0
162082162087.630.-44-6.-160.40.-80.-95.509.6693041.70713.850.00.00.0
162542162547.580.-42-6.-50.40.-90.-95.569.6693040.56714.50.00.00.0
163002163007.490.-38-6.-170.50.-90.-105.509.6593040.56712.980.00.00.0
163492163497.670.-44-6.-100.40.-80.-95.569.6693043.89713.270.00.00.0
163952163957.690.-49-6.-180.40.-90.-95.569.6693040.60713.170.00.00.0
164412164417.820.-48-5.-990.40.-80.-95.569.6693046.3714.140.00.00.0
164982164987.640.-44-5.-950.40.-90.-95.509.6693043.89713.460.00.00.0
165442165447.640.-42-6.-90.40.-90.-105.509.6593041.70713.560.00.00.0
165902165907.620.-41-6.-110.40.-90.-95.509.6693036.23713.370.00.00.0
166362166367.660.-33-6.-50.40.-80.-95.439.6693049.32712.690.00.00.0
166822166827.690.-43-6.-70.40.-90.-95.509.6693044.96713.660.00.00.0
167252167257.660.-44-6.-70.50.-100.-105.569.6693050.40713.650.00.00.0
167712167717.560.-52-6.-10.40.-90.-95.569.6693047.11713.560.00.00.0
168172168177.650.-50-6.-50.50.-90.-95.569.6693043.82713.170.00.00.0
168632168637.630.-44-6.-130.40.-90.-95.569.6693044.92713.660.00.00.0
169092169097.600.-41-6.-80.40.-90.-95.569.6693039.49713.760.00.00.0
169562169567.720.-37-6.-200.40.-90.-95.509.6793040.53713.270.00.00.0
170092170097.610.-31-6.-130.40.-90.-95.569.6693040.56713.70.00.00.0
170572170577.590.-42-6.-180.40.-90.-95.509.6693039.49713.950.00.00.0
171032171037.880.-55-6.-160.40.-80.-95.629.6793041.67713.170.00.00.0
171492171497.720.-55-6.-200.40.-90.-105.569.6693044.96713.560.00.00.0
171952171957.610.-40-5.-860.40.-80.-95.569.6693041.67713.460.00.00.0
172412172417.580.-35-6.-120.40.-90.-95.509.6693041.67713.660.00.00.0
172872172877.710.-39-6.-80.40.-90.-105.569.6693051.48713.460.00.00.0
173332173337.670.-42-6.-50.40.-90.-95.569.6793044.92713.660.00.00.0
173792173797.630.-48-6.-110.40.-90.-95.569.6793041.67713.360.00.00.0
174222174227.590.-53-6.-20.40.-90.-105.569.6693042.78713.760.00.00.0
174682174687.610.-49-6.-40.40.-80.-95.569.6593041.70714.40.00.00.0
175182175187.640.-45-6.-80.40.-90.-105.509.6693041.67713.370.00.00.0
175642175647.610.-37-6.-50.40.-80.-95.569.6693040.56713.360.00.00.0
176102176107.580.-35-6.-120.40.-100.-105.569.6693046.3713.270.00.00.0
176562176567.630.-35-6.-80.40.-90.-95.569.6693043.82713.460.00.00.0
177022177027.650.-46-6.-70.40.-80.-95.569.6793040.56713.460.00.00.0
177502177507.650.-47-6.-30.40.-80.-95.569.6693043.85713.370.00.00.0
177962177967.620.-55-6.-80.40.-90.-105.509.6693041.67713.460.00.00.0
178422178427.620.-48-6.-120.40.-80.-95.569.6693044.92712.980.00.00.0
178882178887.580.-45-6.-130.50.-90.-105.569.6693043.82713.170.00.00.0
179342179347.590.-39-6.-130.40.-90.-105.569.6793041.67713.70.00.00.0
179812179817.630.-39-6.-180.40.-90.-95.509.6693046.0714.150.00.00.0
180312180317.610.-40-6.-60.40.-80.-95.569.6593048.21714.140.00.00.0
180772180777.630.-50-6.-110.40.-90.-95.569.6693046.3713.750.00.00.0
181202181207.610.-43-6.-120.40.-90.-95.569.6693041.67713.360.00.00.0
181662181667.660.-46-6.-90.40.-90.-95.629.6693039.49713.370.00.00.0
182122182127.620.-44-6.-90.40.-90.-105.569.6693047.14713.170.00.00.0
182582182587.580.-40-6.-90.40.-90.-95.569.6693046.3713.80.00.00.0
183042183047.620.-42-6.-90.40.-90.-95.569.6693044.96713.270.00.00.0
183502183507.660.-38-6.-140.40.-90.-95.569.6793037.30713.470.00.00.0
183962183967.620.-42-6.-130.40.-90.-95.569.6793044.89713.180.00.00.0
184442184447.650.-47-6.-50.40.-80.-95.569.6693050.40713.170.00.00.0
184902184907.630.-51-6.-80.40.-90.-95.569.6793044.89713.370.00.00.0
185402185407.590.-45-6.-60.40.-90.-105.569.6693042.78713.370.00.00.0
185862185867.630.-41-6.-90.40.-90.-105.629.6793039.45713.950.00.00.0
186322186327.700.-44-6.-190.40.-90.-95.569.6793042.75712.780.00.00.0
186782186787.660.-42-6.-110.40.-90.-95.509.6893048.18713.370.00.00.0
187242187247.650.-43-6.-150.40.-90.-105.569.6793047.7713.370.00.00.0
187702187707.590.-41-6.-110.40.-90.-95.569.6793042.75713.460.00.00.0
188132188137.610.-50-6.-110.40.-90.-95.569.6793049.26712.980.00.00.0
188592188597.610.-45-6.-100.40.-90.-95.629.6793049.29713.470.00.00.0
189052189057.640.-36-6.-110.40.-90.-95.629.6793044.89713.170.00.00.0
189512189517.590.-43-6.-110.40.-90.-95.569.6793042.71713.760.00.00.0
189982189987.620.-45-6.-170.50.-90.-105.569.6893049.26713.270.00.00.0
190482190487.660.-41-6.-70.40.-90.-105.569.6693047.7713.180.00.00.0
190942190947.610.-46-6.-90.40.-90.-95.629.6893043.82713.80.00.00.0
191372191377.610.-41-6.-50.40.-90.-95.629.6893051.41713.370.00.00.0
191832191837.630.-43-6.-130.50.-90.-105.569.6893043.78713.570.00.00.0
192292192297.630.-40-6.-140.40.-90.-95.569.6993043.75712.980.00.00.0
192752192757.610.-44-6.-140.40.-90.-95.569.6893047.4713.760.00.00.0
193212193217.660.-42-6.-80.40.-90.-105.629.6893050.34713.370.00.00.0
193672193677.660.-41-6.-60.40.-90.-95.569.6993048.15713.570.00.00.0
194132194137.640.-51-6.-110.40.-90.-95.569.6893044.83713.560.00.00.0
194592194597.610.-47-6.-40.40.-90.-105.569.6893045.97713.270.00.00.0
195022195027.610.-48-6.-100.40.-90.-95.569.6993043.78713.660.00.00.0
195592195597.630.-43-6.-130.40.-90.-95.569.6893046.0713.270.00.00.0
196052196057.590.-41-6.-70.40.-90.-95.629.6893044.89712.980.00.00.0
196512196517.650.-43-6.-90.40.-90.-95.569.6893041.60712.980.00.00.0
196972196977.630.-39-6.-100.40.-90.-95.629.6893040.50713.470.00.00.0
197432197437.640.-44-6.-100.40.-90.-105.569.6893052.49713.180.00.00.0
197892197897.650.-48-6.-120.40.-80.-95.629.6993044.86713.370.00.00.0
198322198327.590.-44-6.-50.40.-80.-95.569.6993047.4713.470.00.00.0
198782198787.620.-44-6.-100.40.-90.-95.629.6993050.30713.860.00.00.0
199242199247.560.-47-6.-140.40.-90.-95.629.6993043.75713.660.00.00.0
199702199707.610.-48-6.-90.40.-90.-95.569.6993047.1713.470.00.00.0
200172200177.610.-46-6.-110.40.-90.-105.629.7093051.38712.790.00.00.0
200672200677.640.-44-6.-120.40.-90.-105.629.6993050.30713.770.00.00.0
201132201137.410.-36-6.-60.40.-80.-95.569.6993044.83713.470.00.00.0
201592201617.420.-36-6.-70.40.-90.-105.629.6993051.41713.370.00.00.0
202022202027.840.-49-6.-30.40.-80.-95.629.6993039.39712.980.00.00.0
202482202487.740.-54-6.-200.40.-80.-95.629.7093042.64713.670.00.00.0
202942202947.640.-50-6.-150.40.-90.-95.569.6893040.46713.570.00.00.0
203402203407.540.-42-5.-830.40.-80.-95.629.7093042.64713.80.00.00.0
203862203867.590.-44-6.-120.40.-90.-95.629.7093045.90713.470.00.00.0
204322204327.670.-45-6.-180.40.-100.-105.569.7093043.72713.80.00.00.0
204782204787.690.-42-6.-260.40.-90.-95.569.6993043.75713.570.00.00.0
205212205217.580.-40-6.-120.40.-90.-95.689.6993044.83712.890.00.00.0
205712205717.620.-47-6.-100.40.-90.-95.629.6993045.90713.280.00.00.0
206172206177.640.-47-6.-100.40.-90.-95.629.6993042.64713.570.00.00.0
206632206637.620.-38-5.-980.40.-90.-105.569.6993042.64712.990.00.00.0
207092207097.670.-40-6.-130.40.-90.-95.689.7093045.93712.990.00.00.0
207552207557.500.-43-5.-990.40.-90.-95.629.7093043.72713.670.00.00.0
208012208017.640.-40-6.-40.40.-90.-105.689.7093049.19713.470.00.00.0
208492208497.630.-43-6.-160.40.-90.-95.629.7093052.46713.770.00.00.0
208952208957.520.-45-6.-20.40.-90.-95.629.7093042.64712.790.00.00.0
209412209417.570.-47-6.-130.40.-90.-105.569.7193046.98713.570.00.00.0
209872209877.640.-44-6.-40.40.-90.-105.569.7093052.42713.770.00.00.0
210342210347.560.-40-6.-60.40.-90.-95.569.7193040.42713.180.00.00.0
210842210847.500.-42-6.-140.40.-90.-95.629.7093044.83713.280.00.00.0
211302211307.650.-44-6.-120.40.-80.-105.629.7193041.50713.280.00.00.0
211762211767.580.-43-6.-130.40.-90.-95.689.7093047.1712.990.00.00.0
212192212197.620.-46-6.-150.40.-90.-95.629.7093051.35713.960.00.00.0
212652212657.620.-48-6.-110.40.-90.-95.629.7193039.32712.990.00.00.0
213112213117.570.-43-6.-130.40.-90.-105.629.7093034.96713.470.00.00.0
213572213577.550.-41-6.-150.40.-90.-95.629.7193041.50713.870.00.00.0
214032214037.650.-43-6.-60.40.-90.-105.629.7193050.24713.190.00.00.0
214492214497.650.-49-6.-220.40.-90.-95.689.7193052.42713.90.00.00.0
214952214957.610.-45-6.-110.40.-80.-95.569.7193044.76713.290.00.00.0
215382215387.690.-52-6.-80.40.-90.-105.629.7193048.2713.480.00.00.0
217802217807.600.-42-6.-140.40.-90.-95.689.6093042.97713.740.00.00.0
218262218267.540.-47-6.-90.40.-90.-95.629.6493040.66713.70.00.00.0
218722218727.640.-44-6.-150.40.-90.-95.629.6593044.96712.880.00.00.0
219182219187.590.-44-6.-20.40.-90.-95.629.6793044.86713.470.00.00.0
219642219647.710.-43-6.-120.40.-80.-95.629.6993044.86713.570.00.00.0
220102220107.650.-44-6.-110.40.-90.-95.629.7093047.1713.180.00.00.0
220572220577.590.-40-6.-70.40.-90.-105.629.7093048.51713.730.00.00.0
229542229547.650.-47-6.-110.40.-90.-95.689.5793044.14713.830.00.00.0
230052230057.590.-42-6.-100.40.-90.-95.689.6193041.83713.450.00.00.0
230512230517.680.-45-6.-100.40.-90.-95.689.6493045.0713.170.00.00.0
230982230987.610.-42-6.-30.40.-90.-95.689.6693042.75713.660.00.00.0
231442231447.680.-44-6.-130.40.-90.-95.689.6893051.41713.860.00.00.0
231902231907.660.-42-6.-90.40.-90.-95.689.6893042.67713.860.00.00.0
232362232367.610.-44-6.-60.40.-90.-105.689.6993053.53713.380.00.00.0
232792232797.600.-41-6.-150.40.-90.-95.689.7193045.90713.670.00.00.0
233252233257.640.-40-6.-70.40.-80.-95.689.7293051.31713.480.00.00.0
233712233717.690.-44-6.-60.40.-90.-95.689.7193046.94713.480.00.00.0
234172234177.600.-43-6.-120.40.-90.-105.689.7293044.76713.580.00.00.0
234632234637.660.-47-6.-140.40.-90.-95.689.7193041.47713.190.00.00.0
235132235137.540.-42-6.-20.40.-90.-95.629.7193042.58713.380.00.00.0
235592235597.620.-40-6.-160.40.-90.-95.629.7293044.76713.580.00.00.0
236052236057.620.-46-6.-100.40.-90.-105.689.7293044.79713.380.00.00.0
236482236487.640.-44-6.-160.40.-90.-95.759.7193042.58713.480.00.00.0
236942236947.570.-43-6.-110.40.-80.-95.629.7293044.73713.680.00.00.0
237402237407.610.-38-6.-150.40.-90.-95.629.7293039.28713.380.00.00.0
237862237867.570.-44-6.-200.40.-90.-105.629.7293045.80713.190.00.00.0
238322238327.650.-39-6.-90.40.-90.-95.629.7393038.17713.380.00.00.0
238782238787.700.-45-6.-80.40.-90.-105.629.7393045.80712.800.00.00.0
239242239247.650.-48-6.-110.40.-90.-95.629.7293050.17713.580.00.00.0
239672239677.670.-44-6.-80.40.-90.-95.629.7393043.65713.380.00.00.0
240172240177.660.-44-6.-200.40.-90.-95.689.7293043.62713.480.00.00.0
240632240637.650.-45-6.-110.40.-90.-95.689.7293040.36713.680.00.00.0
241102241107.590.-41-6.-150.40.-90.-105.689.7393044.73713.480.00.00.0
241562241567.610.-42-6.-70.40.-90.-95.689.7393045.77713.190.00.00.0
242022242027.600.-43-6.-70.40.-90.-105.689.7393045.80713.390.00.00.0
242482242487.630.-42-6.-130.40.-80.-95.629.7293042.51713.290.00.00.0
242962242967.610.-41-6.-150.40.-80.-95.629.7293044.69713.480.00.00.0
243422243427.700.-47-6.-130.40.-90.-105.629.7393043.62713.190.00.00.0
243882243887.630.-46-6.-150.40.-90.-105.689.7493042.51713.100.00.00.0
244342244347.650.-46-6.-90.40.-90.-95.569.7493043.62713.490.00.00.0
244802244807.620.-44-6.-90.40.-90.-95.689.7393043.59713.680.00.00.0
245302245307.650.-44-6.-170.40.-90.-105.689.7393038.14713.870.00.00.0
245762245767.660.-43-6.-140.40.-90.-105.689.7393043.59713.390.00.00.0
246222246227.670.-46-6.-140.40.-90.-95.689.7393046.88713.290.00.00.0
246652246657.660.-44-6.-80.40.-90.-105.689.7393039.22713.480.00.00.0
247112247117.610.-43-6.-90.40.-90.-105.689.7393043.59713.390.00.00.0
247572247577.650.-44-6.-130.40.-80.-95.689.7493035.96713.100.00.00.0
248032248037.720.-46-6.-120.40.-80.-95.689.7493040.29713.780.00.00.0
248492248497.600.-44-6.-220.40.-90.-95.629.7393049.3712.900.00.00.0
248952248957.590.-41-6.-60.40.-80.-95.629.7493046.85713.200.00.00.0
249412249417.490.-40-6.-180.40.-100.-105.689.7493042.48713.590.00.00.0
249892249897.650.-51-6.-190.40.-90.-105.629.7393047.96713.290.00.00.0
250392250397.660.-43-6.-20.40.-90.-95.759.7393044.69713.100.00.00.0
250852250857.600.-40-6.-60.40.-90.-105.759.7493052.32713.580.00.00.0
251322251327.580.-41-6.-50.40.-90.-95.689.7493040.32713.290.00.00.0
251782251787.590.-46-6.-20.40.-80.-95.689.7493051.17713.980.00.00.0
252242252247.610.-50-6.-110.40.-80.-95.629.7493044.66713.00.00.00.0
252702252707.660.-46-6.-110.40.-80.-95.689.7493034.85713.390.00.00.0
253162253167.710.-44-6.-70.40.-90.-105.689.7493045.77713.290.00.00.0
253592253597.580.-40-6.-130.40.-80.-95.689.7493040.32713.590.00.00.0
254052254057.580.-38-6.-50.40.-80.-95.629.7493042.48713.680.00.00.0
254512254517.670.-40-6.-120.40.-90.-95.689.7493045.70713.490.00.00.0
254972254977.640.-45-6.-80.40.-90.-105.689.7593039.22713.200.00.00.0
255472255477.620.-49-6.-110.40.-90.-95.759.7493040.29713.590.00.00.0
255932255937.580.-45-6.-90.40.-90.-95.759.7493045.74713.590.00.00.0
256392256397.620.-47-6.-80.40.-90.-95.689.7493046.81713.300.00.00.0
256822256827.660.-39-6.-90.40.-90.-105.689.7593040.26713.300.00.00.0
25057300.239.930.380.40.-80.-119.4311.8393033.74715.440.00.00.0
50578725057870.3210.10.510.40.-40.-109.4311.8693026.94715.70.00.00.0
50583325058330.2610.00.480.40.-70.-109.5011.9093022.39715.770.00.00.0
50587925058790.2010.20.540.40.-70.-109.4311.9193027.74715.100.00.00.0
50592525059250.349.990.580.50.-130.-99.4311.9393025.49715.490.00.00.0
50597125059710.1910.00.310.30.-130.-99.3711.9493027.57715.400.00.00.0
50601725060170.3310.10.450.40.-90.-109.4311.9493023.25715.20.00.00.0
50606025060600.2310.10.590.30.-110.-109.3711.9593020.94715.310.00.00.0
50610625061060.4410.30.550.40.-100.-109.5011.9693024.20715.410.00.00.0
50615225061520.279.960.340.50.-90.-109.4311.9693022.0715.320.00.00.0
50619825061980.209.980.420.40.-110.-109.3711.9693020.94715.220.00.00.0
50624425062440.359.960.450.30.-210.-109.4311.9793026.34715.220.00.00.0
50629525062950.129.980.680.40.-150.-99.3711.9693025.27715.320.00.00.0
50634125063410.289.930.440.40.-160.-99.4311.9693019.82715.320.00.00.0
50638425063840.279.950.540.40.-180.-99.4311.9693021.95715.320.00.00.0
50643025064300.249.970.420.40.-190.-99.3711.9793025.21714.830.00.00.0
50647625064760.2510.20.500.50.-230.-99.4311.9693020.88714.930.00.00.0
50652225065220.619.980.460.50.-200.-79.4311.9893021.95714.740.00.00.0
50656825065680.3510.20.450.40.-130.-109.4311.9793019.75715.420.00.00.0
50661425066140.2810.00.520.50.-110.-109.3711.9793019.75715.30.00.00.0
50666025066600.289.980.460.40.-150.-109.4311.9793024.9714.830.00.00.0
50670325067030.299.970.500.40.-170.-99.4311.9893025.16715.520.00.00.0
50675025067500.49.970.740.30.-490.-119.3711.9993032.82714.930.00.00.0
50680025068000.3310.30.470.50.-520.-89.4311.9993026.34715.720.00.00.0
50684625068460.9610.00.-250.40.-70.-119.4311.9893016.44715.710.00.00.0
50689225068920.210.00.550.30.70.-129.4311.9893026.28715.520.00.00.0
50693825069380.3710.20.660.40.00.-109.4311.9893025.16715.30.00.00.0
50698425069840.339.990.530.40.-100.-99.3711.9893024.14715.130.00.00.0
50703025070320.4310.70.240.50.-110.-99.3711.9893027.41715.710.00.00.0
50707325070730.49.990.510.30.-160.-109.4311.9793017.57715.320.00.00.0
50711925071190.810.20.690.30.-330.-99.4311.9993026.28715.230.00.00.0
50716525071650.4210.30.380.40.-450.-99.4311.9893025.16715.30.00.00.0
50721125072110.349.950.400.30.-380.-109.4311.9893020.77715.130.00.00.0
50725725072570.589.990.280.40.-250.-89.4311.9893019.70715.40.00.00.0
50730725073070.3810.20.550.40.-130.-109.4311.9993019.70714.930.00.00.0
50735325073530.459.960.470.40.-160.-109.4311.9793027.41715.420.00.00.0
50739625073960.429.990.320.40.-90.-109.4311.9893019.70714.640.00.00.0
50744225074420.4110.10.380.40.-70.-89.4311.9893025.21715.130.00.00.0
50748825074880.429.940.210.30.00.-109.3711.9893019.70714.930.00.00.0
50753425075340.1910.50.630.30.20.-109.4311.9893023.2715.420.00.00.0
50758025075800.289.940.780.40.-200.-99.5011.9893025.16715.520.00.00.0
50762625076260.509.980.600.40.-380.-99.4311.9893018.57715.130.00.00.0
50767225076720.3310.10.220.50.-320.-109.3711.9993027.30714.840.00.00.0
50771525077150.449.950.490.50.-320.-109.3711.9893022.91715.520.00.00.0
50776225077620.3310.50.250.40.-210.-109.4311.9893018.57715.820.00.00.0
50781225078120.409.930.480.40.-220.-109.5012.093021.84715.130.00.00.0
50785825078580.3010.20.330.40.-210.-109.4311.9893025.16715.330.00.00.0
50790425079040.439.980.380.40.-160.-99.5011.9993018.57715.230.00.00.0
50795025079500.3310.10.510.40.-110.-109.5011.9993018.52715.40.00.00.0
50799625079960.4710.20.360.40.-80.-109.5011.9993025.16715.330.00.00.0
50804225080440.4310.10.430.40.-10.-109.4311.9893022.96715.330.00.00.0
50808525080850.449.950.530.40.-90.-99.4311.9993022.96715.230.00.00.0
50813125081310.4910.10.330.40.-80.-109.4311.9893027.35715.140.00.00.0
50817725081770.3010.20.500.40.-70.-99.4311.9893026.23715.40.00.00.0
50822325082230.329.950.330.40.-80.-109.3111.9993028.42715.40.00.00.0
50826925082690.319.960.450.40.-80.-99.3711.9993021.84715.430.00.00.0
50831925083190.4010.00.370.40.-30.-109.3711.9893026.28715.130.00.00.0
50836525083650.249.940.550.30.-70.-99.4311.9993020.77715.420.00.00.0
50840825084080.569.980.470.40.-90.-99.5011.9793021.84715.320.00.00.0
50845425084540.2110.30.420.40.-100.-109.4311.9993019.70715.810.00.00.0
50850025085000.5410.00.460.40.-100.-109.3711.9893026.23715.130.00.00.0
50854625085460.1510.40.510.40.-150.-109.4311.9993020.77715.330.00.00.0
50859225085920.399.970.460.40.-240.-109.5011.9993025.16715.230.00.00.0
50863825086380.339.950.290.50.-170.-109.4312.093017.39715.40.00.00.0
50868425086840.349.970.420.30.-60.-109.3711.9993021.84714.750.00.00.0
50872725087270.409.930.540.40.-40.-99.4311.9993023.98714.650.00.00.0
50877425087740.419.980.470.40.-90.-109.5011.9993022.96715.240.00.00.0
50883125088310.409.930.240.40.00.-109.4311.9893026.28714.830.00.00.0
50887725088770.4510.30.270.30.120.-109.3711.9893025.16715.520.00.00.0
50892325089230.299.970.580.30.30.-109.3711.9993018.57715.520.00.00.0
50896925089690.289.990.550.40.-20.-109.3711.9993017.45715.40.00.00.0
50901525090150.2810.30.580.40.-50.-109.3712.093020.71715.330.00.00.0
50906125090610.6210.40.430.50.00.-89.4311.9993021.84715.430.00.00.0
50910425091040.5910.40.220.30.-120.-119.3711.9993025.10716.100.00.00.0
50915025091500.249.980.550.40.20.-109.3711.9993026.23715.820.00.00.0
50919625091960.2310.50.470.30.-100.-109.4311.9893022.96715.330.00.00.0
50924225092420.3910.40.440.40.-110.-99.4312.093024.3715.620.00.00.0
50928825092880.3810.30.520.40.-120.-99.3711.9993020.71715.820.00.00.0
50933925093390.5410.20.440.40.-100.-99.4311.9993021.84715.520.00.00.0
50938525093850.3710.10.450.40.-70.-109.5011.9893027.35715.720.00.00.0
50942825094280.379.960.460.40.-90.-109.3711.9893022.91715.330.00.00.0
50947425094740.2210.30.460.40.-70.-109.3711.9993027.35715.330.00.00.0
50952025095200.659.990.310.40.-80.-99.3711.9993024.3715.330.00.00.0
50956625095660.2210.30.490.40.-60.-109.4311.9993028.42715.520.00.00.0
50961225096120.459.980.450.30.-170.-99.3712.093022.96715.40.00.00.0
50965825096580.4110.20.340.30.-150.-99.3711.9993020.77714.940.00.00.0
50970425097040.359.980.480.30.-90.-109.4312.093025.10715.40.00.00.0
50975225097520.319.980.480.40.-100.-99.4312.093021.78715.430.00.00.0
50979925097990.369.990.590.40.-120.-99.4312.093025.10715.820.00.00.0
50984925098490.699.950.350.50.-130.-99.4311.9893026.23714.940.00.00.0
50989525098950.2010.40.610.40.-220.-129.4311.9993020.71715.140.00.00.0
50994125099410.4510.40.370.60.-280.-79.4311.9993022.91715.140.00.00.0
50998725099870.5510.20.110.40.-200.-109.5012.093014.13715.240.00.00.0
51003325100330.2410.00.540.30.-60.-109.4312.093020.71715.630.00.00.0
51007925100790.4210.40.490.40.-70.-99.5011.9993022.91715.620.00.00.0
51012225101220.429.930.370.40.-50.-99.5012.093019.70715.40.00.00.0
51016825101680.2610.20.380.30.-20.-109.4311.9993022.91714.650.00.00.0
51021425102140.4810.30.420.40.00.-99.4311.9993026.23715.620.00.00.0
51026025102600.4910.20.290.30.130.-109.4312.093021.78715.240.00.00.0
51030625103060.349.980.470.30.30.-109.4312.093017.45715.40.00.00.0
51087525108750.969.990.620.20.-80.-89.5011.8593021.54715.170.00.00.0
51144525114450.439.970.530.50.-70.-109.3711.8493030.32714.780.00.00.0
51149625114960.399.950.360.40.-80.-99.5011.8993020.25715.570.00.00.0
51154225115420.329.970.600.40.-60.-109.4311.9293017.89715.200.00.00.0
51158825115880.3110.40.440.40.-100.-99.4311.9393023.25715.500.00.00.0
51163425116340.569.980.750.40.-80.-89.4311.9593023.19715.20.00.00.0
51168025116800.1310.00.470.30.-100.-109.4311.9693019.87715.320.00.00.0
51172625117260.469.970.610.40.-100.-99.4311.9893026.34715.30.00.00.0
51177225117720.299.980.530.40.-80.-109.5011.9793023.7715.130.00.00.0
51181825118200.359.910.420.40.-80.-109.3711.9893019.75715.130.00.00.0
51186125118610.4410.50.400.50.-20.-109.3711.9893023.2715.30.00.00.0
51190825119080.2610.60.360.40.30.-109.4311.9993024.9715.230.00.00.0
51195425119540.139.980.540.30.-110.-109.3711.9993019.70715.420.00.00.0
51200425120040.539.980.600.40.-90.-109.4311.9893019.70715.620.00.00.0
51205025120500.2110.40.450.30.-110.-109.4311.9893024.3715.520.00.00.0
51209625120960.469.940.630.40.-90.-99.4311.9993025.16715.230.00.00.0
51214225121420.4110.10.580.50.-90.-99.4311.9993027.35715.520.00.00.0
51218525121850.3810.00.440.40.-100.-109.4311.9993021.89715.230.00.00.0
51223125122310.229.990.550.40.-150.-109.4311.9993021.84715.40.00.00.0
51227725122770.439.990.340.40.-110.-99.4311.9993021.84714.550.00.00.0
51232325123230.3410.40.320.40.-90.-109.5011.9993021.84714.940.00.00.0
51236925123690.2710.00.770.40.-70.-109.4311.9993020.71715.330.00.00.0
51241525124150.409.960.390.40.-90.-99.5012.093022.91715.140.00.00.0
51246125124610.349.960.560.40.-70.-109.4311.9993018.52714.450.00.00.0
51251625125160.339.960.570.40.-90.-109.3711.9993023.2715.620.00.00.0
51256225125620.3910.00.450.40.-60.-109.3711.9993026.23715.520.00.00.0
51260825126080.309.990.400.40.-90.-109.3711.9993028.42714.840.00.00.0
51265425126540.4010.00.470.40.-80.-109.3712.093025.10715.140.00.00.0
51270025127000.339.990.450.40.-40.-109.3711.9993022.91715.330.00.00.0
51274625127460.3110.00.490.40.-100.-99.5011.9993021.78715.140.00.00.0
51279225127920.369.980.550.30.-90.-99.3712.093029.50715.140.00.00.0
51283825128380.359.950.440.40.-100.-109.4312.093024.3715.40.00.00.0
51288125128810.389.980.550.40.-90.-99.3711.9993025.10714.740.00.00.0
51292825129280.389.960.520.40.-100.-109.4312.093021.78715.530.00.00.0
51297425129740.399.940.410.40.-90.-109.4311.9993025.10715.330.00.00.0
51302525130250.3310.10.470.40.-90.-109.4312.093028.37715.40.00.00.0
51307125130710.369.980.480.40.-90.-109.4311.9993019.64714.840.00.00.0
51311725131170.3410.00.400.40.-90.-99.4312.093027.30714.650.00.00.0
51316325131630.299.970.570.40.-90.-109.5011.9993016.38715.230.00.00.0
51320625132060.3510.50.520.40.-100.-99.4312.093020.77715.910.00.00.0
51325225132520.339.980.600.40.-100.-109.4312.093026.23715.330.00.00.0
51329825132980.359.980.640.40.-120.-109.5012.093019.64715.330.00.00.0
51334425133440.369.960.420.40.-170.-99.5012.093022.91715.330.00.00.0
51339025133900.479.990.510.40.-90.-109.4312.093021.78714.940.00.00.0
51343625134360.2310.30.510.40.-100.-119.5012.093031.63715.430.00.00.0
51348225134820.399.980.510.40.-100.-99.5012.093021.78715.630.00.00.0
51353525135350.329.990.500.40.-140.-109.4312.093022.91715.230.00.00.0
51358125135810.4110.40.560.40.-80.-99.4311.9993029.50715.620.00.00.0
51362725136270.409.960.490.40.-80.-109.4312.093022.91715.40.00.00.0
51367325136730.2910.10.500.40.-80.-109.5012.093023.98715.140.00.00.0
51371925137190.3010.00.460.40.-90.-109.4312.093027.25714.740.00.00.0
51376525137650.3010.20.520.40.-70.-99.4312.093019.59715.430.00.00.0
51381125138110.4010.00.470.40.-100.-109.3712.093023.98715.340.00.00.0
51385725138570.369.960.470.40.-100.-109.5012.093023.98715.620.00.00.0
51390025139000.3610.30.510.40.-90.-99.4312.093025.10716.10.00.00.0
51394725139470.369.970.500.40.-100.-99.4312.093022.91714.940.00.00.0
51399325139930.2610.30.580.40.-180.-109.4312.093022.91715.630.00.00.0
51404325140430.3010.20.410.40.-100.-99.4312.093028.37715.140.00.00.0
51408925140890.479.990.550.40.-90.-99.5012.093023.98715.530.00.00.0
51413525141350.4110.10.560.40.-70.-99.4312.193018.52715.330.00.00.0
51418125141810.339.950.420.40.-80.-109.5012.093026.17715.330.00.00.0
51422925142290.3310.00.510.40.-80.-109.5012.093021.78715.40.00.00.0
51427525142750.309.990.560.40.-100.-109.5011.9993022.91714.850.00.00.0
51432125143210.3610.30.620.40.-100.-109.5012.193030.50715.820.00.00.0
51436725143670.519.960.600.50.-110.-109.5012.193019.59715.430.00.00.0
51441325144130.439.990.520.50.-80.-119.4312.093022.85715.730.00.00.0
51445925144590.3010.10.510.60.-70.-119.4312.093027.18715.240.00.00.0
51450525145050.310.130.240.50.-100.-109.5012.093020.66715.730.00.00.0
51455625145560.469.960.650.40.-90.-99.4312.093023.98715.430.00.00.0
51459925145990.449.970.510.40.-100.-99.5012.093025.10715.330.00.00.0
51464525146450.289.990.340.50.-90.-109.4312.093025.10714.850.00.00.0
51469125146910.2210.20.520.30.-100.-99.4312.093023.98715.240.00.00.0
51473725147370.4810.20.620.30.-90.-109.4312.093023.98715.530.00.00.0
51478325147830.1910.00.540.40.-80.-109.3711.9993030.50715.440.00.00.0
51482925148290.399.980.520.40.-100.-99.4312.193026.17715.240.00.00.0
51487525148750.439.960.500.50.-90.-109.3712.193026.17715.430.00.00.0
51491825149180.3510.40.460.40.-90.-109.3712.093022.85715.530.00.00.0
51496525149650.3810.10.510.40.-90.-109.5012.093017.39715.340.00.00.0
51501125150110.269.990.410.40.-90.-109.4312.093021.78714.750.00.00.0
51506825150680.409.990.500.30.-90.-109.4312.093022.91715.140.00.00.0
51511425151140.3210.00.510.40.-90.-109.5012.093026.17715.140.00.00.0
51516025151600.319.990.530.40.-90.-99.4312.093022.91715.40.00.00.0
51520625152060.349.990.600.40.-90.-109.3712.093020.71714.750.00.00.0
51525225152540.329.970.470.40.-100.-109.4312.093027.25715.530.00.00.0
51529525152950.3610.40.450.40.-90.-109.4312.093028.32715.240.00.00.0
51534125153410.2610.10.450.40.-90.-109.5012.093028.37715.240.00.00.0
51538725153870.449.970.540.40.-100.-99.5012.193019.59715.140.00.00.0
51543325154330.319.970.360.40.-90.-109.4312.093020.66715.430.00.00.0
51547925154790.3210.20.510.30.-90.-109.4312.093021.78715.150.00.00.0
51552525155250.2810.30.550.40.-90.-109.4312.093020.66715.340.00.00.0
51557625155760.389.990.480.40.-90.-99.5012.093021.84715.430.00.00.0
51561925156190.3510.00.540.40.-90.-109.4312.093027.30715.620.00.00.0
51566525156650.3010.10.480.40.-90.-109.4312.093019.59715.430.00.00.0
51571125157110.319.960.420.40.-90.-109.4312.093019.53715.340.00.00.0
51575725157570.2910.20.410.40.-90.-99.5012.093017.39715.730.00.00.0
51580325158030.3110.40.490.40.-90.-109.4312.193028.32715.430.00.00.0
51584925158490.319.970.570.40.-90.-109.4312.193018.46715.440.00.00.0
51589525158950.369.970.510.30.-90.-109.5012.193020.66715.50.00.00.0
51594325159430.3410.00.520.40.-90.-109.4312.193025.5714.840.00.00.0
51599025159900.389.980.510.40.-90.-109.4312.193022.85715.240.00.00.0
51603625160360.349.990.480.40.-80.-99.3712.093025.5715.440.00.00.0
51608625160860.3110.10.480.40.-90.-109.3712.093031.63715.240.00.00.0
51613225161320.359.970.440.40.-90.-109.4312.093025.5715.240.00.00.0
51617825161780.2410.20.410.40.-80.-109.4312.193022.85715.50.00.00.0
51622425162240.379.990.400.30.-40.-99.3712.093019.53715.530.00.00.0
51627025162700.409.960.380.30.-10.-109.3712.093017.39715.530.00.00.0
51631325163130.3010.00.660.20.00.-109.5012.093023.98715.330.00.00.0
51635925163590.309.960.780.40.-120.-109.4312.093020.71715.50.00.00.0
51640525164050.549.960.510.50.-200.-109.4312.093026.12715.530.00.00.0
51645125164510.1610.60.660.40.-280.-119.3712.193027.25715.530.00.00.0
51649725164970.319.980.470.60.-60.-89.4312.193025.5715.920.00.00.0
51654325165430.689.940.330.50.-110.-89.5012.193023.98715.340.00.00.0
51659325165930.3410.00.320.30.-90.-109.5012.193033.82715.530.00.00.0
51664125166410.339.960.520.30.-90.-109.3112.093028.32715.340.00.00.0
51668725166870.329.970.540.40.-80.-109.4312.093034.89715.820.00.00.0
51673325167330.299.990.350.40.-100.-99.4312.093026.12715.530.00.00.0
51677925167790.4510.10.460.40.-100.-109.4312.193023.92715.240.00.00.0
51682525168250.3310.10.480.40.-90.-109.4312.193019.53715.240.00.00.0
51687125168710.419.970.380.40.-80.-99.4312.193030.50714.950.00.00.0
51691725169170.3710.10.440.30.-80.-99.4312.193028.32715.630.00.00.0
51696325169630.3010.20.420.40.-60.-109.4312.293028.32715.530.00.00.0
51700725170070.3710.00.460.40.-80.-109.3712.193025.0714.560.00.00.0
51705325170530.399.990.600.30.-100.-109.4312.193020.66714.940.00.00.0
51710325171030.319.990.580.40.-100.-109.4312.093027.25715.530.00.00.0
51714925171490.3410.40.520.40.-110.-99.4312.093028.37715.50.00.00.0
51719525171950.3310.00.410.40.-100.-99.4312.193026.12715.340.00.00.0
51724125172410.359.990.440.40.-90.-109.4312.193023.92716.120.00.00.0
51728725172870.299.980.480.40.-80.-109.4312.293026.12715.50.00.00.0
51733025173300.319.980.550.40.-90.-109.4312.293026.12715.50.00.00.0
51737625173760.3410.00.460.40.-90.-99.4312.293023.92715.730.00.00.0
51742225174220.3910.20.460.40.-100.-109.4312.193021.73715.530.00.00.0
51746825174680.3410.20.430.40.-80.-109.4312.293025.0714.850.00.00.0
51751425175140.3310.10.480.40.-80.-109.4312.193023.92715.440.00.00.0
51756025175600.2810.40.560.40.-90.-99.3712.193022.80714.850.00.00.0
51761025176100.3310.20.520.50.-100.-109.4312.193026.12714.850.00.00.0
51765625176560.3210.20.440.40.-100.-109.3712.093021.78714.850.00.00.0
51769925176990.389.990.350.40.-100.-99.3712.093028.37715.140.00.00.0
51774525177450.3810.40.460.40.-80.-109.4312.193027.25715.430.00.00.0
51779125177910.329.990.500.30.-80.-109.4312.193019.59715.920.00.00.0
51783725178370.3210.10.520.30.-80.-99.5012.193022.80715.150.00.00.0
51788325178830.319.960.480.40.-90.-109.4312.193020.66715.50.00.00.0
51792925179290.3310.00.470.40.-70.-109.4312.193031.57715.440.00.00.0
51797525179750.4910.20.480.30.-70.-99.5012.193030.45715.340.00.00.0
51801925180190.369.980.460.30.-80.-109.4312.293022.80715.540.00.00.0
51806525180650.249.990.550.30.-90.-109.4312.293027.13714.950.00.00.0
51812225181220.349.960.490.40.-100.-99.5011.9993022.85714.850.00.00.0
51816825181680.4810.10.470.40.-100.-99.5012.093027.18715.150.00.00.0
51821425182140.3510.00.470.40.-80.-109.5012.193023.87715.240.00.00.0
51826025182600.2910.00.480.30.-80.-109.3712.193025.5715.730.00.00.0
51830625183060.3210.30.510.30.-70.-99.5012.193021.78715.440.00.00.0
51835225183540.399.980.470.30.-90.-99.4312.193022.85715.920.00.00.0
51839525183950.419.970.500.40.-90.-99.4312.193029.44715.340.00.00.0
51844125184410.459.990.490.40.-90.-109.4312.193021.73714.950.00.00.0
51848725184870.339.980.560.40.-90.-109.4312.093018.41715.530.00.00.0
51853325185330.349.960.450.40.-90.-109.4312.193022.85715.340.00.00.0
51857925185790.2810.10.540.40.-90.-109.5012.193022.75714.460.00.00.0
51863025186300.349.980.480.40.-90.-99.4312.193023.98715.340.00.00.0
51867625186760.3410.10.540.40.-90.-99.3712.193021.32715.380.00.00.0
51891225189120.369.980.520.40.-90.-99.4311.9393029.88715.590.00.00.0
51895825189580.419.970.470.40.-90.-109.4311.9593021.0715.410.00.00.0
51900425190040.3210.30.530.40.-90.-109.5011.9693029.60715.220.00.00.0
51905125190510.3310.30.520.30.-90.-99.4311.9793029.55715.130.00.00.0
51909725190970.3010.00.530.40.-90.-109.4311.9993028.42715.330.00.00.0
51966225196620.459.940.500.40.-110.-99.3711.8893024.75715.370.00.00.0
52022925202290.439.990.500.40.-110.-99.4311.8593029.19715.560.00.00.0
52060725206070.2510.00.550.30.-80.-109.5011.8693023.68715.270.00.00.0
52065325206530.3410.60.620.30.-100.-99.4311.9093023.46714.990.00.00.0
52069925206990.449.960.500.40.-110.-99.4311.9393023.25715.110.00.00.0
52074525207450.3410.10.540.40.-140.-109.4311.9693024.31714.920.00.00.0
52079125207910.339.990.480.40.-100.-109.3711.9693026.39715.510.00.00.0
52083725208370.3410.70.510.40.-90.-99.4311.9793023.7715.30.00.00.0
52088325208830.4210.20.440.40.-90.-109.4311.9893027.35714.740.00.00.0
52092925209290.359.960.460.40.-90.-109.4311.9893022.96715.130.00.00.0
52097225209720.289.990.480.40.-90.-109.4311.9993024.9715.520.00.00.0
52101825210180.349.980.570.40.-100.-99.4311.9993021.84715.820.00.00.0
52106425210640.4310.00.530.40.-110.-99.4311.9993019.59715.50.00.00.0
52111425211140.3510.10.530.40.-100.-109.4311.9993026.23714.940.00.00.0
52116025211600.3610.20.450.40.-90.-109.4312.093026.17715.620.00.00.0
52120625212060.399.990.450.40.-90.-109.4311.9993026.17715.330.00.00.0
52125325212530.3210.00.520.40.-90.-109.4312.093025.10715.340.00.00.0
52129525212950.339.970.570.40.-90.-99.5011.9993027.30715.230.00.00.0
52134125213410.3610.20.490.40.-90.-109.4311.9993021.78715.820.00.00.0
52138725213870.4510.00.510.40.-90.-109.4311.9993020.71714.750.00.00.0
52143325214330.3410.40.500.50.-90.-119.4312.093017.45715.240.00.00.0
52147925214790.449.980.530.50.-90.-119.4312.093020.66715.630.00.00.0
52152525215250.910.50.350.50.-60.-119.4312.193022.80715.140.00.00.0
52157125215710.259.940.560.30.-90.-99.4312.093019.59715.630.00.00.0
52162425216240.3910.10.560.40.-100.-99.4312.193025.10715.40.00.00.0
52167025216700.339.960.440.50.-100.-109.5012.093023.98715.240.00.00.0
52171625217160.359.970.380.50.-100.-109.4312.093022.85715.240.00.00.0
52176225217620.2210.10.350.30.-80.-99.4312.093021.78715.240.00.00.0
52180825218080.359.970.550.30.-90.-99.5012.093025.5715.340.00.00.0
52185425218540.409.980.550.40.-90.-109.3712.093021.73714.840.00.00.0
52190025219000.3710.10.540.40.-90.-109.4312.193023.92715.540.00.00.0
52194625219460.319.950.450.50.-90.-99.5012.093025.5715.530.00.00.0
52198925219890.3310.10.400.40.-90.-109.5012.093031.63715.730.00.00.0
52203525220350.3510.20.500.40.-80.-109.4312.193025.0715.50.00.00.0
52208125220810.329.970.480.40.-90.-109.5012.193023.92715.240.00.00.0
52214025221400.449.990.410.40.-100.-99.3711.9993028.37715.920.00.00.0
52218625221860.309.990.430.30.-80.-109.5012.093028.37715.240.00.00.0
52223225222320.2910.40.520.40.-80.-109.4312.093023.98715.330.00.00.0
52227925222790.3210.00.590.40.-90.-109.3712.093017.39715.340.00.00.0
52232725223270.3910.10.500.40.-100.-99.5012.193014.13714.850.00.00.0
52237325223730.3710.10.490.40.-90.-109.4312.093029.38715.340.00.00.0
52241925224190.319.970.470.50.-100.-99.4312.193029.38715.440.00.00.0
52246525224650.379.970.410.40.-90.-109.3712.093028.32714.370.00.00.0
52251125225110.369.950.410.40.-80.-109.4312.193020.66715.630.00.00.0
52255725225570.2810.00.500.30.-70.-109.5012.293027.18715.140.00.00.0
52260325226030.2310.20.560.40.-90.-99.5012.293023.92715.340.00.00.0
52265425226540.339.940.490.40.-100.-109.4312.093021.78715.330.00.00.0
52269925226990.449.980.470.40.-90.-109.4312.093023.98715.530.00.00.0
52274525227450.3010.00.420.40.-90.-109.4312.193020.66714.450.00.00.0
52279125227910.279.990.490.40.-90.-109.4312.193025.5714.940.00.00.0
52283725228370.3310.00.500.40.-90.-99.4312.293022.80714.950.00.00.0
52288325228830.419.980.510.40.-90.-109.4312.193020.66715.440.00.00.0
52292925229290.339.980.370.40.-90.-109.4312.193021.73715.340.00.00.0
52297525229750.339.990.450.40.-90.-99.5012.193025.0714.950.00.00.0
52302325230230.409.930.510.40.-90.-99.4312.193021.73714.850.00.00.0
52306925230690.369.990.430.40.-90.-109.4312.193021.73715.150.00.00.0
52311525231150.369.990.480.40.-90.-109.4312.193031.57715.730.00.00.0
52316525231650.299.970.500.40.-90.-109.5012.193022.85715.50.00.00.0
52321125232110.3510.10.470.40.-100.-99.4312.193016.27715.240.00.00.0
52325725232570.3510.10.480.40.-100.-109.3712.293029.38715.630.00.00.0
52330425233040.3310.30.430.40.-90.-109.4312.293022.80715.440.00.00.0
52335025233500.2910.10.410.40.-90.-109.3712.093021.78714.940.00.00.0
52339325233930.3410.40.510.40.-90.-99.4312.193025.5715.730.00.00.0
52343925234390.3910.10.480.40.-90.-109.4312.193027.25715.630.00.00.0
52348525234850.3210.40.530.40.-90.-99.5012.093028.25715.50.00.00.0
52353125235310.4010.10.440.40.-90.-109.4312.193023.92715.340.00.00.0
52357725235770.349.990.540.40.-90.-109.4312.293023.87715.340.00.00.0
52362325236230.3810.10.440.40.-100.-109.5012.193021.73715.150.00.00.0
52367325236730.3010.00.540.40.-80.-99.5012.293030.50715.630.00.00.0
52371625237160.379.990.470.40.-90.-109.5612.293023.87715.340.00.00.0
52376225237620.3610.30.570.40.-90.-99.5012.293027.18714.850.00.00.0
52380825238080.3710.00.500.40.-90.-99.3712.393029.38715.440.00.00.0
52385425238540.429.960.470.40.-100.-109.4312.293023.92715.830.00.00.0
52390025239000.3710.10.450.40.-90.-109.3712.293029.44715.250.00.00.0
52394625239460.279.980.540.40.-80.-99.3712.293021.67714.460.00.00.0
52399225239920.2710.10.510.40.-90.-109.4312.393028.32715.240.00.00.0
52403825240380.419.940.510.40.-100.-109.4312.193023.92714.750.00.00.0
52408125240810.2910.40.390.40.-90.-109.3712.193022.85715.830.00.00.0
52412725241270.3510.20.450.40.-80.-109.4312.193024.93715.540.00.00.0
52417725241770.3710.10.490.40.-90.-99.4312.193025.0715.240.00.00.0
52422325242230.3410.00.520.40.-90.-109.4312.193021.78715.240.00.00.0
52426925242690.2810.30.540.40.-90.-109.4312.193022.80715.630.00.00.0
52431625243160.3610.00.450.40.-100.-109.4312.193027.18715.340.00.00.0
52436225243620.329.980.420.40.-90.-109.5012.293025.5714.940.00.00.0
52440525244050.3310.30.490.40.-90.-109.5012.193022.80715.150.00.00.0
52445125244510.2910.10.500.40.-90.-109.4312.193025.0715.340.00.00.0
52449725244970.3110.20.530.40.-90.-109.4312.193020.60715.240.00.00.0
52454325245430.3710.10.470.40.-90.-109.3712.293022.80714.850.00.00.0
52458925245890.389.970.450.40.-90.-109.4312.293018.41715.240.00.00.0
52463525246350.339.980.500.40.-80.-109.5012.293025.0715.830.00.00.0
52468525246850.289.990.500.40.-80.-99.5012.293021.67715.730.00.00.0
52473125247340.3010.20.490.40.-90.-99.5012.193025.5715.340.00.00.0
52477425247740.399.970.540.40.-90.-109.4312.193025.5714.850.00.00.0
52482025248200.3010.20.470.40.-90.-109.4312.293017.34715.540.00.00.0
52486625248660.3810.00.470.40.-90.-99.4312.193021.67714.960.00.00.0
52491225249120.419.990.440.40.-90.-99.4312.193022.80715.50.00.00.0
52495825249580.429.990.460.40.-90.-109.4312.193030.45715.740.00.00.0
52500425250040.3010.10.540.40.-100.-109.3712.193022.80715.640.00.00.0
52505025250500.299.990.550.40.-100.-99.4312.093026.12715.240.00.00.0
52509325250930.3910.10.490.40.-100.-99.3712.193016.21715.340.00.00.0
52513925251390.4310.00.390.40.-90.-109.4312.293022.80715.150.00.00.0
52519625251960.2810.10.450.30.-70.-109.4312.093021.78715.430.00.00.0
52524225252420.329.980.440.30.-100.-109.4312.193019.59715.240.00.00.0
52528825252880.3010.40.510.30.-90.-109.3712.193022.85715.340.00.00.0
52533525253350.3410.00.510.40.-100.-109.4312.293026.12714.750.00.00.0
52538125253810.3010.30.500.40.-90.-109.4312.293023.92715.50.00.00.0
52542925254290.319.980.550.40.-90.-99.5012.193020.60715.150.00.00.0
52547525254750.389.980.490.40.-90.-99.3712.193019.53715.150.00.00.0
52552125255210.3610.10.450.50.-100.-109.4312.293027.13715.540.00.00.0
52556725255670.349.970.390.50.-90.-109.4312.193023.87714.850.00.00.0
52561325256130.3610.00.460.40.-80.-109.4312.293020.55715.240.00.00.0
52565925256590.309.960.440.40.-90.-109.4312.293027.18714.660.00.00.0
52571025257100.2410.10.470.40.-90.-109.4312.193022.85715.250.00.00.0
52575625257560.3610.00.620.40.-90.-99.5012.293030.50715.240.00.00.0
52579925257990.3510.00.450.40.-90.-99.5012.193018.46714.750.00.00.0
52584525258450.3310.20.520.40.-90.-99.3712.193022.75715.440.00.00.0
52589125258910.3610.10.490.40.-90.-109.4312.293015.14715.250.00.00.0
52593725259370.4010.00.460.40.-100.-109.4312.293023.92715.440.00.00.0
52598325259830.3810.00.450.40.-90.-109.4312.293025.5715.540.00.00.0
52602925260290.359.960.440.40.-80.-109.4312.293031.57715.440.00.00.0
52607525260750.1910.20.500.40.-80.-119.4312.293023.87715.440.00.00.0
52612325261230.209.980.560.40.-100.-99.5012.293028.25715.250.00.00.0
52616925261690.319.980.530.40.-100.-99.4312.293022.80715.150.00.00.0
52621925262190.4910.20.470.40.-100.-99.4312.193026.6714.560.00.00.0
52626525262650.439.970.480.40.-90.-109.4312.293018.41714.850.00.00.0
52631125263110.329.990.570.40.-80.-109.4312.293026.6715.340.00.00.0
52635825263580.3310.00.500.40.-80.-109.3712.193025.0715.340.00.00.0
52640425264040.2810.10.500.40.-100.-99.4312.293027.13714.760.00.00.0
52645025264500.4010.10.480.40.-100.-109.3712.193027.18715.340.00.00.0
52649325264930.3610.00.450.40.-90.-109.4312.293023.87715.240.00.00.0
52653925265390.369.970.480.30.-80.-99.5012.193019.48715.540.00.00.0
52658525265850.3010.30.470.40.-90.-109.4312.193020.60715.630.00.00.0
52663125266310.3010.30.520.40.-90.-109.4312.293023.87715.540.00.00.0
52667725266770.3310.40.520.40.-100.-99.4312.293023.87715.440.00.00.0
52672725267270.489.990.450.40.-90.-109.4312.193026.6715.50.00.00.0
52677325267730.369.990.390.40.-90.-109.5012.293025.0715.250.00.00.0
52682125268210.289.990.510.30.-80.-109.4312.293022.80716.30.00.00.0
52686725268670.279.970.500.40.-90.-99.4312.193028.25715.340.00.00.0
52691325269130.3810.10.510.40.-100.-109.5012.293022.80715.930.00.00.0
52695925269590.329.980.430.40.-90.-109.4312.293027.25715.150.00.00.0
52700525270050.3410.60.520.40.-90.-99.4312.293026.6715.50.00.00.0
52705125270510.3310.30.510.40.-100.-99.5012.293028.25715.540.00.00.0
52709725270970.369.940.440.40.-100.-109.4312.293017.28715.340.00.00.0
52714325271430.4110.20.420.40.-90.-109.5012.293028.32715.50.00.00.0
52718625271860.309.980.520.40.-80.-109.5012.293021.73714.750.00.00.0
52723725272370.339.980.480.40.-90.-99.4312.193030.50715.630.00.00.0
52728325272830.419.960.540.40.-100.-99.5012.193018.41715.50.00.00.0
52732925273290.489.960.470.40.-90.-109.4312.293026.12715.340.00.00.0
52737625273760.3610.30.470.40.-70.-109.5012.393026.6714.850.00.00.0
52742225274220.229.990.540.30.-80.-99.4312.293025.0715.150.00.00.0
52746825274680.3010.20.510.40.-100.-109.5012.293028.25714.860.00.00.0
52751125275110.4310.00.540.40.-100.-99.5612.293023.87715.150.00.00.0
52755725275570.419.980.470.40.-90.-109.5012.393026.0715.350.00.00.0
52760325276030.379.970.500.40.-80.-109.3712.293023.87714.960.00.00.0
52764925276490.2910.00.500.40.-90.-109.4312.293027.13715.250.00.00.0
52769525276950.3210.20.530.40.-90.-109.5012.393024.93715.730.00.00.0
52794425279440.3510.10.550.40.-100.-99.4311.9093028.86715.100.00.00.0
52799025279900.429.960.440.40.-90.-109.4311.9493027.63715.110.00.00.0
52803625280360.3310.00.510.40.-90.-109.4311.9693028.1714.780.00.00.0
52892525289250.2910.00.470.40.-90.-109.5011.8693024.75715.660.00.00.0
52949325294930.3010.10.430.40.-100.-109.5611.8693023.68715.370.00.00.0
52954425295440.369.990.590.40.-90.-109.5011.9093025.66715.90.00.00.0
52959025295900.3410.30.520.40.-100.-109.5011.9393028.75715.10.00.00.0
52963625296360.389.970.380.40.-80.-109.4311.9693019.87715.20.00.00.0
52968225296820.3210.40.400.40.-90.-99.4311.9693024.14715.320.00.00.0
52972825297280.3310.00.500.40.-90.-109.5011.9893018.69715.320.00.00.0
52977125297710.2710.20.470.40.-80.-99.4311.9893027.35715.420.00.00.0
52981725298170.409.990.500.40.-100.-109.4311.9993024.3715.820.00.00.0
52986325298630.329.970.450.40.-90.-109.5611.9993026.17714.940.00.00.0
52990925299090.3410.10.470.40.-90.-109.4312.093025.10714.940.00.00.0
52995625299560.3610.30.510.40.-100.-109.4312.093025.10715.430.00.00.0
53000225300020.3510.30.540.40.-80.-109.5012.093025.10715.630.00.00.0
53005225300520.339.990.440.40.-90.-99.4312.093025.5714.360.00.00.0
53010025301000.459.930.420.40.-90.-99.5611.9993018.52715.820.00.00.0
53014625301460.3110.30.520.40.-90.-109.5012.193025.5715.340.00.00.0
53019225301920.2510.40.430.40.-90.-99.5012.193028.32715.340.00.00.0
53023825302380.429.970.500.40.-100.-109.5012.093028.32715.50.00.00.0
53028425302840.409.980.460.40.-90.-109.5012.193028.25715.240.00.00.0
53033025303300.2210.10.490.40.-90.-109.5012.193025.5715.240.00.00.0
53037625303760.339.980.550.40.-90.-99.5012.093027.18714.850.00.00.0
53042225304220.409.970.430.40.-90.-109.4312.193025.0714.460.00.00.0
53046525304650.2610.00.380.40.-90.-109.4312.193023.92715.530.00.00.0
53051125305110.399.980.500.40.-90.-99.4312.293025.0715.140.00.00.0
53056125305610.3210.00.500.40.-90.-109.4312.193027.18714.650.00.00.0
53060725306070.399.990.420.40.-90.-99.4312.093022.85714.950.00.00.0
53065325306530.3410.10.510.40.-80.-99.5012.193025.0715.340.00.00.0
53069925306990.3410.10.490.40.-90.-109.5012.193027.18715.50.00.00.0
53074525307450.329.980.570.40.-100.-109.4312.193031.63715.540.00.00.0
53079325307930.3610.40.470.40.-80.-109.5012.293031.57715.440.00.00.0
53083925308390.3910.00.480.40.-90.-99.4312.193026.6715.340.00.00.0
53088525308850.309.990.540.40.-90.-109.5012.193019.53715.150.00.00.0
53093125309310.349.980.460.40.-100.-109.5612.193025.0715.630.00.00.0
53097825309780.389.980.510.40.-90.-109.5012.393028.25715.150.00.00.0
53102425310240.369.970.530.40.-90.-109.5012.293027.18714.660.00.00.0
53107425310740.3110.30.450.40.-90.-109.5612.193022.80714.760.00.00.0
53112025311200.3310.30.450.40.-90.-99.5612.193026.12715.530.00.00.0
53116325311630.3310.00.460.40.-90.-109.5012.193025.0715.340.00.00.0
53120925312090.3510.20.470.40.-100.-109.5012.293022.80714.850.00.00.0
53125525312550.439.980.490.40.-90.-109.5012.193018.41714.960.00.00.0
53130125313010.3510.00.440.40.-90.-109.5012.293017.34715.60.00.00.0
53134725313470.3710.30.490.40.-90.-109.5012.293026.6714.850.00.00.0
53139325313930.3310.10.480.40.-90.-109.5012.293026.6715.440.00.00.0
53143925314390.3010.10.480.40.-80.-99.5012.293022.80715.50.00.00.0
53148725314870.4110.00.550.40.-90.-99.5012.293025.0715.730.00.00.0
53153325315330.4010.00.460.40.-90.-99.5012.193022.80714.950.00.00.0
53158325315830.329.960.460.40.-90.-109.5012.193026.12715.440.00.00.0
53162925316290.3210.10.500.40.-90.-109.5612.193022.80714.560.00.00.0
53167525316750.359.950.440.40.-90.-109.5612.293023.87715.240.00.00.0
53172125317210.329.990.470.40.-90.-109.5012.293019.53715.640.00.00.0
53176725317670.3310.20.540.40.-90.-109.5012.193026.6714.850.00.00.0
53181325318130.3710.20.500.40.-90.-99.5612.293025.5714.950.00.00.0
53185625318560.369.970.490.40.-100.-109.5012.293020.60715.630.00.00.0
53190225319020.3810.00.430.50.-120.-109.5012.293023.92715.50.00.00.0
53194825319480.3310.10.370.40.-90.-109.5012.293021.67715.50.00.00.0
53199525319950.2910.40.540.30.-60.-109.5012.293020.55715.250.00.00.0
53204125320410.3610.40.560.30.-90.-99.5012.293023.92715.340.00.00.0
53209925320990.4010.30.520.40.-100.-99.5012.093021.73715.440.00.00.0
53214525321450.399.940.650.40.-100.-99.5012.193028.32715.340.00.00.0
53219325321930.329.950.500.40.-100.-99.5612.193022.80715.150.00.00.0
53223925322390.399.960.480.40.-100.-99.5012.193018.41715.50.00.00.0
53228525322850.3310.00.450.50.-90.-109.5012.193021.73715.340.00.00.0
53233125323310.429.990.460.40.-90.-109.5012.393027.13715.730.00.00.0
53237725323770.3110.30.380.40.-90.-109.4312.293026.6715.440.00.00.0
53242325324230.3110.40.410.30.-90.-109.4312.393018.46715.250.00.00.0
53246925324690.3110.60.550.30.-90.-99.4312.193021.67715.640.00.00.0
53251525325150.3210.20.500.40.-90.-109.5612.293020.60715.630.00.00.0
53255825325580.3510.00.600.40.-100.-109.5012.193021.73714.850.00.00.0
53260925326090.419.950.520.40.-90.-109.5012.093023.92715.150.00.00.0
53265525326550.4010.00.450.40.-90.-109.5612.293025.0715.50.00.00.0
53270125327010.319.990.440.40.-90.-109.5012.193028.32715.240.00.00.0
53274725327470.3010.20.450.40.-90.-109.5012.193023.87714.460.00.00.0
53279325327930.3010.00.460.40.-90.-109.4312.293019.48715.640.00.00.0
53283925328390.3510.20.570.30.-90.-99.5012.193018.41715.150.00.00.0
53288225328820.3610.20.480.40.-100.-109.4312.393024.93715.50.00.00.0
53292825329280.3610.10.570.40.-90.-109.4312.293020.55715.340.00.00.0
53297425329740.389.950.460.40.-100.-109.5012.293023.87714.760.00.00.0
53302125330210.409.990.440.40.-90.-109.5012.293022.80715.250.00.00.0
53306725330670.3210.20.520.40.-90.-109.5012.293024.93715.150.00.00.0
53311725331170.3310.10.380.40.-90.-109.5012.293023.87715.50.00.00.0
53316325331630.3010.30.490.40.-90.-99.5012.293025.0714.660.00.00.0
53320925332090.3510.10.440.40.-90.-109.5012.193022.75714.560.00.00.0
53325225332520.3710.10.530.30.-90.-99.4312.193026.6715.830.00.00.0
53329825332980.3510.20.490.40.-90.-99.5012.293024.93715.340.00.00.0
53334425333440.409.960.510.40.-90.-109.5012.293026.6715.540.00.00.0
53339025333900.339.990.520.50.-90.-109.5012.293021.67715.50.00.00.0
53343625334360.3710.30.440.40.-90.-109.5012.393024.93714.760.00.00.0
53348225334820.3310.10.460.40.-90.-109.4312.293017.28715.540.00.00.0
53352825335280.3510.10.480.40.-90.-99.5012.293026.0715.250.00.00.0
53357125335710.3310.40.520.40.-90.-109.4312.393024.93715.350.00.00.0
53362125336210.449.970.490.40.-90.-99.4312.293022.80715.540.00.00.0
53366725336670.3510.00.520.40.-90.-109.5012.293026.6715.840.00.00.0
53371325337130.329.980.520.40.-90.-109.4312.193030.39715.60.00.00.0
53375925337590.3510.50.540.40.-90.-109.5012.293023.87715.830.00.00.0
53380525338050.3510.00.500.40.-90.-109.5012.393026.6714.960.00.00.0
53385125338510.3610.40.440.40.-90.-109.4312.293020.60715.540.00.00.0
53389725338970.3310.20.480.40.-90.-99.5012.393025.0715.150.00.00.0
53394025339400.369.950.430.40.-90.-99.5012.193021.67715.60.00.00.0
53398625339860.319.980.440.30.-90.-109.5012.293029.38715.250.00.00.0
53403325340330.3410.00.500.40.-90.-109.4312.293024.93715.540.00.00.0
53407925340790.399.990.470.40.-90.-109.5612.293023.87714.960.00.00.0
53412925341290.3210.10.500.40.-90.-109.5012.293020.55714.950.00.00.0
53417525341750.339.980.470.40.-90.-109.5012.293024.93715.350.00.00.0
53422125342210.3410.20.480.40.-90.-99.4312.193026.6715.440.00.00.0
53426425342640.3910.30.430.40.-100.-99.4312.293031.52715.440.00.00.0
53431025343100.369.990.440.40.-90.-109.4312.293019.48714.370.00.00.0
53435625343560.4210.20.420.40.-90.-109.5012.393028.25715.50.00.00.0
53440225344020.3810.30.460.30.-90.-99.5012.293030.45715.50.00.00.0
53444825344480.3510.00.490.40.-90.-109.4312.293029.32715.250.00.00.0
53449425344940.389.990.510.40.-90.-109.5012.393020.60715.440.00.00.0
53454025345400.3510.20.500.40.-100.-109.5012.393022.75714.660.00.00.0
53458625345890.3610.40.460.40.-90.-99.5012.293027.18715.540.00.00.0
53464025346400.3610.00.440.40.-90.-99.5612.093029.44715.240.00.00.0
53468625346860.3610.40.490.40.-100.-109.5012.193020.60715.540.00.00.0
53473225347320.3310.50.360.40.-90.-109.4312.293023.87714.850.00.00.0
53477825347780.3510.10.480.40.-90.-99.5012.193022.80715.150.00.00.0
53482425348240.2910.20.490.40.-90.-109.5012.293027.13714.660.00.00.0
53487025348700.3410.20.530.40.-90.-109.5012.393022.80715.540.00.00.0
53491625349160.339.990.530.40.-90.-109.5612.293026.6715.250.00.00.0
53495925349590.409.990.470.40.-90.-109.5012.293026.6715.240.00.00.0
53500525350050.369.980.440.40.-90.-99.5012.293022.80715.540.00.00.0
53505225350520.379.970.400.40.-90.-109.5012.393023.87714.660.00.00.0
53509825350980.349.990.430.40.-90.-109.5012.293026.0716.30.00.00.0
53514925351490.379.990.430.40.-90.-109.4312.193026.12714.760.00.00.0
53519525351950.3310.20.510.40.-90.-99.5012.293025.0715.250.00.00.0
53524125352410.3110.10.470.40.-90.-109.4312.293019.48715.150.00.00.0
53528725352890.439.990.460.40.-90.-109.4312.293025.0714.950.00.00.0
53533025353300.3110.10.530.40.-90.-109.4312.193026.6715.250.00.00.0
53537625353760.369.990.510.40.-90.-109.4312.293029.32715.340.00.00.0
53542225354220.3410.10.440.40.-90.-109.5012.193021.67715.540.00.00.0
53546825354680.3410.20.460.40.-90.-109.4312.393023.87714.960.00.00.0
53551425355140.3510.50.510.40.-90.-99.5012.393030.45715.60.00.00.0
53556025355600.3610.30.510.40.-90.-99.5012.393023.87715.250.00.00.0
53560625356060.3610.00.490.40.-90.-109.4312.293027.13715.630.00.00.0
53565325356530.399.930.510.40.-90.-99.4312.193018.41715.250.00.00.0
53569925356990.379.990.500.40.-90.-109.5012.193027.13714.960.00.00.0
53574525357450.359.990.460.40.-90.-109.4312.293028.20714.960.00.00.0
53579125357910.3810.20.560.40.-90.-109.5012.293021.62715.150.00.00.0
53583725358370.349.960.460.40.-90.-99.5012.293023.81715.50.00.00.0
53588325358830.349.980.480.40.-90.-109.4312.293022.80714.760.00.00.0
53592925359290.3510.00.520.40.-100.-109.4312.293024.93715.50.00.00.0
53597525359770.409.980.490.40.-90.-99.4312.293021.67715.540.00.00.0
53601825360180.3610.30.500.40.-90.-109.4312.393019.48715.60.00.00.0
53606525360650.349.980.470.40.-90.-109.5612.293017.23715.150.00.00.0
53611125361110.3810.30.470.40.-90.-109.5012.293023.87715.150.00.00.0
53616225361620.329.970.450.40.-90.-109.5012.193025.0715.440.00.00.0
53620825362080.3310.70.520.40.-90.-99.5012.193023.81715.640.00.00.0
53625425362540.3610.30.490.40.-90.-109.4312.393023.87715.350.00.00.0
53630025363000.349.960.450.40.-90.-109.5012.393018.41715.150.00.00.0
53634325363430.3310.10.500.40.-90.-99.4312.293022.80715.150.00.00.0
53638925363890.3610.00.510.40.-90.-99.5012.293020.55715.350.00.00.0
53643525364350.369.990.460.40.-90.-109.5012.293027.13715.350.00.00.0
53648125364810.3510.50.450.40.-90.-109.5012.293023.87715.60.00.00.0
53652725365270.3110.20.480.40.-90.-99.5012.293029.32715.250.00.00.0
53657325365730.3310.10.480.40.-90.-99.5612.393020.55715.50.00.00.0
53661925366190.3510.10.510.40.-90.-109.5012.293020.55715.250.00.00.0
53666925366690.359.970.410.40.-90.-109.5012.293024.93714.860.00.00.0
53671525367150.3110.60.550.40.-90.-109.5012.393028.25715.830.00.00.0
53676125367610.3510.20.500.40.-90.-109.5012.393022.75714.960.00.00.0
53680725368070.3910.00.450.40.-90.-109.4312.293026.6715.350.00.00.0
53685325368530.309.970.440.40.-90.-109.4312.393023.81714.470.00.00.0
53689925368990.3410.10.480.40.-90.-109.5012.293021.62715.50.00.00.0
53694525369450.3710.40.470.40.-90.-109.5612.293029.27715.740.00.00.0
53699125369910.369.970.400.40.-90.-99.5012.293028.25714.660.00.00.0
53703625370360.369.970.450.40.-90.-99.4312.293027.13715.50.00.00.0
53708325370830.3410.10.500.40.-90.-99.5012.293028.25714.850.00.00.0
53712925371290.3510.00.500.40.-90.-99.5012.293028.25715.250.00.00.0
53737225373720.3710.20.470.40.-90.-109.5011.9293025.60715.590.00.00.0
53741825374180.429.980.390.40.-90.-99.5011.9493019.92715.210.00.00.0
53746425374640.379.990.470.40.-90.-109.4311.9793024.14714.930.00.00.0
53751025375100.3210.10.440.40.-90.-109.4311.9893026.23715.230.00.00.0
53789525378950.3510.30.510.40.-90.-109.5611.9093021.32714.990.00.00.0
53794125379410.3510.10.470.40.-90.-99.5611.9393027.68715.10.00.00.0
53798725379870.359.980.460.40.-90.-109.5011.9493028.64715.220.00.00.0
53803325380330.2210.00.430.40.-90.-109.5011.9893024.9714.640.00.00.0
53807925380790.3610.40.460.40.-90.-99.5611.9893022.96715.230.00.00.0
53812625381260.3510.30.490.40.-90.-109.5011.9993030.57714.940.00.00.0
53817225381720.3210.70.510.40.-90.-109.5611.9993028.37714.750.00.00.0
53821825382180.369.990.470.40.-90.-109.5012.093026.17715.140.00.00.0
53826125382610.2710.50.580.40.-90.-99.5012.193023.92715.730.00.00.0
53830725383070.3610.20.490.40.-90.-99.5012.193011.82715.50.00.00.0
53835325383530.3310.20.520.40.-90.-109.5012.193028.25715.240.00.00.0
53840425384040.369.970.440.40.-90.-109.5012.093023.92715.340.00.00.0
53845025384500.3510.50.430.40.-90.-109.5012.293021.73714.960.00.00.0
53849625384960.3710.10.460.40.-90.-99.5012.193019.53715.150.00.00.0
53854225385420.3410.30.530.40.-90.-109.5012.293021.67715.160.00.00.0
53858525385850.3610.00.460.40.-90.-99.5012.293027.13715.640.00.00.0
53863125386310.3510.60.520.40.-90.-109.4312.293029.27715.250.00.00.0
53867725386770.4010.20.410.40.-90.-99.5012.293020.55715.160.00.00.0
53872325387230.3810.10.490.40.-90.-109.5012.293029.32715.150.00.00.0
53876925387690.3510.10.480.40.-90.-109.5012.393029.32715.540.00.00.0
53881525388150.3110.00.510.40.-90.-109.5012.393027.13715.350.00.00.0
53886125388610.3510.10.480.40.-90.-99.5012.393028.20715.50.00.00.0
53891125389110.389.990.470.40.-90.-99.5612.293022.75715.630.00.00.0
53895425389540.3110.30.440.40.-90.-109.5012.293029.38715.50.00.00.0
53900025390000.3410.00.500.40.-90.-99.5012.393026.6715.150.00.00.0
53904625390460.3510.40.450.40.-90.-109.5012.293023.87715.450.00.00.0
53909225390920.3410.10.500.40.-90.-109.5612.393027.13715.250.00.00.0
53913925391390.3510.10.510.40.-90.-99.4312.293020.55715.440.00.00.0
53918525391850.3310.30.470.40.-90.-109.5012.293023.87714.960.00.00.0
53923125392310.3610.00.490.40.-90.-109.5612.293024.93715.450.00.00.0
53927425392740.3310.30.490.40.-90.-109.5012.393020.49715.450.00.00.0
53932025393200.3610.10.470.40.-80.-99.5012.393027.7715.350.00.00.0
53936625393660.3510.30.540.40.-90.-99.5612.393026.0715.640.00.00.0
53941625394160.339.990.480.40.-90.-109.5612.293023.81714.370.00.00.0
53946225394620.3110.40.520.40.-90.-109.5612.293020.60715.440.00.00.0
53950825395080.3710.40.480.40.-90.-109.5012.293024.93715.50.00.00.0
53955425395540.399.970.470.40.-90.-109.5012.393023.81715.630.00.00.0
53960025396000.329.970.460.40.-90.-109.5012.293030.39715.540.00.00.0
53964325396430.4010.00.490.40.-90.-109.5012.393028.25715.250.00.00.0
53968925396890.3410.10.470.40.-90.-109.5012.293023.87715.150.00.00.0
53973525397350.3710.10.470.40.-90.-109.5012.293026.6715.160.00.00.0
53978125397810.3210.40.510.40.-90.-99.5012.393030.45715.250.00.00.0
53982725398270.3410.10.500.40.-90.-109.5012.293023.87715.350.00.00.0
53987325398730.3410.40.500.40.-100.-109.5012.393034.78715.60.00.00.0
53992325399230.3310.20.480.40.-90.-109.5012.393017.28714.760.00.00.0
53996625399660.3310.20.460.40.-90.-109.4312.393022.75715.50.00.00.0
54001225400120.359.970.470.40.-90.-109.5012.293028.20715.440.00.00.0
54005825400580.2910.40.510.40.-90.-99.5612.293023.81714.960.00.00.0
54010425401040.359.990.460.40.-90.-99.5612.393020.55714.960.00.00.0
54015125401510.3610.40.520.40.-100.-109.5012.293024.93715.830.00.00.0
54019725401970.409.960.490.40.-90.-99.5012.393030.39715.250.00.00.0
54024325402430.3410.10.500.40.-90.-99.5012.393017.23715.540.00.00.0
54028925402890.3510.10.480.40.-90.-109.5012.293030.45715.50.00.00.0
54033225403320.3510.20.480.40.-90.-109.3712.393022.80715.440.00.00.0
54037825403780.3710.10.440.40.-90.-109.4312.393024.93715.150.00.00.0
54042925404290.3610.30.500.40.-90.-109.4312.193026.6714.860.00.00.0
54047525404750.2910.10.520.40.-90.-109.5612.293027.18715.50.00.00.0
54052125405210.369.970.470.40.-90.-109.5012.293021.67714.960.00.00.0
54056725405670.3810.00.530.40.-90.-109.5012.393024.93715.350.00.00.0
54061325406130.349.940.440.40.-90.-99.5612.393031.46715.250.00.00.0
54065625406560.3710.10.490.40.-90.-109.5012.293027.7715.60.00.00.0
54070225407020.3010.00.430.40.-90.-109.5012.393023.81714.760.00.00.0
54074825407480.3510.30.480.40.-100.-109.5012.293024.88715.640.00.00.0
54079425407940.3410.40.490.40.-90.-109.5012.393027.13715.250.00.00.0
54084025408400.379.990.500.40.-90.-109.5012.393026.6715.350.00.00.0
54088625408860.3510.00.450.40.-90.-109.5012.393023.81715.250.00.00.0
54094325409430.369.980.470.40.-90.-109.5612.293025.0715.440.00.00.0
54098925409910.2910.00.460.40.-90.-99.5012.293029.38715.730.00.00.0
54103225410320.3610.20.490.40.-90.-109.5012.293020.60715.340.00.00.0
54107825410780.319.980.490.40.-90.-109.4312.293028.25714.760.00.00.0
54112425411240.3510.20.490.40.-90.-109.5012.293029.32714.470.00.00.0
54117125411710.3110.50.490.40.-90.-99.5612.293020.55715.250.00.00.0
54121725412170.2610.30.550.40.-90.-109.5012.293024.93715.250.00.00.0
54126325412630.3710.10.500.40.-90.-109.5612.393020.55715.150.00.00.0
54130925413090.3710.30.510.40.-90.-109.5612.293024.93714.960.00.00.0
54135225413520.3210.20.500.40.-90.-99.5012.393022.75715.340.00.00.0
54139825413980.3310.10.540.40.-90.-99.5012.393019.48715.440.00.00.0
54144925414490.3810.00.480.40.-90.-109.5012.393022.75715.250.00.00.0
54149525414950.3410.20.450.40.-90.-109.4312.393026.6715.640.00.00.0
54154125415410.3410.30.470.40.-90.-99.5012.293027.13715.350.00.00.0
54158725415870.3410.10.490.40.-90.-109.4312.293027.7715.540.00.00.0
54163325416330.339.970.500.40.-90.-109.5612.393023.81715.150.00.00.0
54167925416810.3210.10.470.40.-90.-109.4312.293027.13715.350.00.00.0
54172225417220.4010.10.430.40.-90.-99.4312.293018.35715.640.00.00.0
54176825417680.3610.10.490.40.-90.-99.5612.293020.55715.250.00.00.0
54181425418140.3210.10.450.40.-90.-109.5012.293021.62715.450.00.00.0
54186025418600.3510.20.520.40.-90.-109.5012.293031.46715.150.00.00.0
54190625419060.349.990.490.40.-90.-109.5012.393023.81715.450.00.00.0
54195625419560.3610.10.490.40.-90.-109.5012.293022.75715.540.00.00.0
54200225420020.3410.40.510.40.-90.-99.5012.393025.0715.250.00.00.0
54204525420450.369.990.470.40.-90.-109.5012.293026.12714.860.00.00.0
54209125420910.3110.10.500.40.-90.-109.5612.293019.48715.250.00.00.0
54213725421370.399.990.570.40.-100.-109.5612.393019.48715.350.00.00.0
54218425421840.3610.40.490.40.-90.-109.5012.393027.7715.450.00.00.0
54223025422300.3010.20.460.40.-90.-109.5612.393023.81715.350.00.00.0
54227625422760.3710.00.480.40.-100.-109.5012.293027.7715.250.00.00.0
54232225423220.3610.30.530.40.-90.-109.5012.393018.35715.450.00.00.0
54237025423700.3510.60.500.40.-90.-99.5612.393023.81715.450.00.00.0
54241625424160.369.960.380.40.-90.-99.5012.393028.14714.860.00.00.0
54246625424660.3510.20.520.40.-90.-109.5012.293023.81714.860.00.00.0
54251225425120.359.990.500.40.-90.-99.5012.393024.93715.250.00.00.0
54255825425580.3410.20.540.40.-90.-109.5012.393027.13715.250.00.00.0
54260425426040.359.970.400.40.-90.-109.5012.393019.42714.270.00.00.0
54265025426500.379.990.470.40.-90.-109.5012.393024.93714.960.00.00.0
54269625426960.289.990.480.40.-90.-99.5612.393026.6715.440.00.00.0
54273925427390.3510.20.490.40.-90.-109.5012.393022.75714.760.00.00.0
54278525427850.3310.00.500.40.-90.-109.5012.293023.81715.160.00.00.0
54283125428310.359.970.460.40.-90.-109.4312.393022.75715.640.00.00.0
54287725428770.359.990.520.40.-90.-99.4312.393020.55715.740.00.00.0
54292325429230.349.960.480.40.-90.-109.4312.393026.0715.250.00.00.0
54297325429730.2910.30.470.40.-90.-109.5012.393029.32714.760.00.00.0
54301925430190.3310.00.500.40.-90.-99.5012.393023.87715.350.00.00.0
54306725430670.3610.20.480.40.-100.-109.5012.393028.20715.60.00.00.0
54311325431130.3910.00.500.40.-90.-109.5612.293022.75715.50.00.00.0
54315925431590.349.960.370.40.-90.-109.5612.293020.55715.350.00.00.0
54320625432060.3410.10.470.40.-90.-99.5012.393019.48715.350.00.00.0
54325225432520.3310.30.490.40.-90.-109.5612.393021.62715.840.00.00.0
54329825432980.3610.10.450.40.-90.-109.4312.393022.75715.60.00.00.0
54334425433440.339.990.540.40.-90.-99.5012.393021.62715.150.00.00.0
54339025433900.3310.20.450.40.-90.-109.5012.393022.75715.640.00.00.0
54343325434330.3110.20.480.40.-90.-99.5012.293021.67715.440.00.00.0
54349025434900.3010.20.380.40.-90.-109.5012.193030.45715.150.00.00.0
54353625435360.359.990.530.40.-90.-99.5612.293026.6714.950.00.00.0
54358225435820.339.990.500.40.-90.-99.5012.293030.39715.350.00.00.0
54362825436280.349.980.450.40.-90.-109.5012.293024.93714.660.00.00.0
54367425436740.3510.10.470.40.-90.-109.5012.393026.0715.60.00.00.0
54372025437200.339.960.470.40.-90.-99.5012.393022.75715.150.00.00.0
54376825437680.339.970.480.40.-90.-109.5612.393024.93715.150.00.00.0
54381425438140.2610.00.550.40.-90.-109.5012.293024.93715.250.00.00.0
54386025438600.349.980.470.40.-90.-109.5012.293019.42715.60.00.00.0
54390625439060.3910.20.510.40.-90.-109.5612.393021.67714.860.00.00.0
54395225439520.3310.40.390.40.-90.-99.4312.393021.62715.350.00.00.0
54400325440030.339.990.480.40.-90.-99.5612.393017.28715.640.00.00.0
54404925440490.329.990.540.40.-100.-109.5012.293024.88715.60.00.00.0
54409525440950.3510.40.530.40.-90.-109.5012.293030.39715.350.00.00.0
54413825441380.3310.10.490.40.-90.-109.5612.393019.48714.960.00.00.0
54418425441840.3410.00.510.40.-90.-109.5012.393024.93714.470.00.00.0
54423125442310.389.980.490.40.-90.-109.5012.393021.67714.370.00.00.0
54427725442770.359.990.480.40.-90.-109.5612.293018.35715.60.00.00.0
54432325443230.3310.00.530.40.-90.-99.5612.393026.0715.60.00.00.0
54436925443690.289.990.420.40.-90.-109.5012.393026.0715.160.00.00.0
54441525444150.3310.20.480.40.-90.-109.4312.393020.49715.60.00.00.0
54446325444630.409.960.480.40.-90.-109.5012.393023.81714.960.00.00.0
54451325445130.2910.30.440.40.-90.-109.5612.293028.25715.250.00.00.0
54455925445590.419.990.510.40.-90.-109.5012.393028.25715.350.00.00.0
54460525446050.3410.10.500.40.-90.-109.5012.293022.75715.740.00.00.0
54465125446510.3010.30.490.40.-90.-109.5012.393022.75715.150.00.00.0
54469725446970.3410.20.480.40.-100.-109.5012.393030.39715.540.00.00.0
54474325447430.359.990.510.40.-90.-109.5012.393022.68715.250.00.00.0
54478925447890.2910.20.510.40.-90.-99.5612.393026.0714.760.00.00.0
54483225448320.3810.00.450.40.-90.-109.5012.293022.75715.150.00.00.0
54487825448780.3310.20.530.40.-90.-109.5612.293026.0714.960.00.00.0
54492425449240.369.960.380.40.-90.-109.5612.293019.42715.450.00.00.0
54497025449700.369.990.500.40.-90.-109.5612.393029.21715.250.00.00.0
54502025450200.3510.40.480.40.-90.-109.5012.393030.39715.440.00.00.0
54506625450660.3710.10.540.40.-90.-99.5012.293015.3715.730.00.00.0
54511225451120.3610.20.410.40.-90.-99.5012.393023.81715.440.00.00.0
54516025451600.3810.20.490.40.-90.-109.5012.393024.93714.960.00.00.0
54520625452060.359.990.480.40.-90.-109.5012.393026.0715.60.00.00.0
54525325452530.3510.10.450.40.-90.-109.5612.393026.0715.540.00.00.0
54529925452990.3610.20.500.40.-100.-109.5612.393030.39715.840.00.00.0
54534525453450.359.970.460.40.-90.-109.5012.393028.14715.540.00.00.0
54539125453910.3210.00.480.40.-90.-109.5012.393023.81715.250.00.00.0
54543725454370.3710.00.470.40.-90.-109.5012.393024.88714.960.00.00.0
54548325454830.3510.00.510.40.-90.-109.5612.393024.93715.60.00.00.0
54572225457220.419.970.430.40.-90.-109.5011.9193022.23715.100.00.00.0
54576825457680.309.970.440.40.-90.-99.5011.9493029.71714.630.00.00.0
54581425458140.3510.20.490.40.-90.-109.5011.9893028.48715.420.00.00.0
54586025458600.3310.40.490.40.-90.-109.5611.9993019.64714.740.00.00.0
54590625459060.369.970.400.40.-90.-99.5011.9993025.0714.550.00.00.0
54595225459520.389.990.510.40.-90.-109.5012.293019.53715.50.00.00.0
54599825459980.3110.00.480.40.-90.-109.5012.193023.92715.470.00.00.0
54688125468810.3210.20.530.40.-90.-109.5011.8793015.92714.980.00.00.0
54745325474530.379.970.440.40.-90.-109.5611.8793016.99715.80.00.00.0
54750425475040.3310.00.430.40.-90.-109.5011.9193026.67715.200.00.00.0
54755025475500.3210.30.470.40.-90.-109.5011.9493029.82715.500.00.00.0
54759625475960.319.990.430.40.-90.-109.4311.9693028.59715.20.00.00.0
54764225476420.419.980.470.40.-90.-109.5011.9793027.41715.320.00.00.0
54768825476880.3410.00.460.40.-90.-99.5011.9993024.3715.40.00.00.0
54773425477360.349.930.420.40.-90.-109.5011.9993020.71715.40.00.00.0
54777725477770.3610.20.500.40.-90.-109.5011.9993025.10715.330.00.00.0
54782325478230.339.990.480.40.-90.-99.4312.093031.57715.230.00.00.0
54786925478690.3210.40.500.40.-90.-109.5012.093016.27715.240.00.00.0
54791625479160.3710.20.480.40.-90.-109.5612.193028.32714.950.00.00.0
54796225479620.3110.20.350.40.-90.-109.5612.193025.0714.750.00.00.0
54802125480210.399.990.460.40.-90.-99.5012.093022.91714.750.00.00.0
54806725480670.3810.20.490.40.-90.-99.4312.093023.98715.530.00.00.0
54811025481100.389.980.480.40.-90.-109.5612.093018.46714.650.00.00.0
54815625481560.3810.20.480.40.-90.-109.4312.093022.85715.240.00.00.0
54820225482020.3610.10.470.40.-90.-109.5612.193022.85714.950.00.00.0
54824825482480.2910.60.540.40.-90.-99.5012.193020.66714.950.00.00.0
54829425482940.3810.20.490.40.-90.-109.5012.293027.18715.640.00.00.0
54834025483400.389.990.470.40.-90.-109.4312.193026.6714.660.00.00.0
54838625483860.3310.30.440.40.-90.-109.4312.293021.67715.250.00.00.0
54843425484340.3510.40.460.40.-90.-99.5012.193026.6715.250.00.00.0
54848025484800.3210.00.480.40.-90.-99.5012.293019.48715.830.00.00.0
54853125485310.3910.20.470.40.-90.-109.5012.193030.45715.50.00.00.0
54857725485770.3610.40.520.40.-90.-109.5012.193019.48715.250.00.00.0
54862325486230.339.970.420.40.-90.-109.5612.293023.81714.760.00.00.0
54866925486690.3810.00.490.40.-90.-99.5612.293025.0715.440.00.00.0
54871525487150.3110.10.440.40.-90.-109.5012.293020.55715.150.00.00.0
54876125487610.349.990.550.40.-90.-109.5012.293027.18715.540.00.00.0
54880425488040.3310.10.450.40.-90.-99.5012.293029.38715.350.00.00.0
54885025488500.3310.40.500.40.-90.-99.4312.293024.93714.960.00.00.0
54889625488960.339.990.470.40.-90.-109.5612.293024.93714.950.00.00.0
54894325489430.369.970.450.40.-90.-109.5012.293021.67715.540.00.00.0
54898925489890.3410.20.490.40.-90.-109.5012.293023.81715.150.00.00.0
54903925490390.3610.20.520.40.-90.-99.5612.293023.87715.50.00.00.0
54908525490850.3410.10.510.40.-90.-99.5012.293024.93715.640.00.00.0
54913625491360.3510.00.500.40.-90.-109.5612.393026.12714.950.00.00.0
54918225491820.3210.40.530.40.-90.-109.5612.293021.67715.740.00.00.0
54922825492280.349.950.400.40.-90.-109.5012.293026.6715.540.00.00.0
54927425492740.339.950.460.40.-90.-109.5012.293028.25714.760.00.00.0
54932025493200.319.990.480.40.-90.-109.5012.193026.6715.150.00.00.0
54936625493660.3710.20.510.40.-90.-109.5012.393026.0714.660.00.00.0
54941225494120.3510.10.520.40.-90.-109.5012.393024.93715.150.00.00.0
54945825494580.379.980.480.40.-90.-109.5612.293026.6715.340.00.00.0
54950125495010.3310.10.490.40.-90.-99.5012.293022.80715.250.00.00.0
54955125495510.3610.20.480.40.-90.-109.5012.293023.87715.240.00.00.0
54959725495970.3210.10.510.40.-90.-99.5612.293029.32715.50.00.00.0
54964325496430.3710.10.490.40.-90.-109.5612.393026.0715.540.00.00.0
54968925496890.3210.20.520.40.-90.-109.5012.393021.67715.540.00.00.0
54973525497350.389.980.390.40.-90.-99.5012.293022.75715.150.00.00.0
54978125497810.359.990.490.40.-90.-99.5012.293027.13715.440.00.00.0
54982925498290.369.990.500.40.-90.-109.5612.293021.67715.440.00.00.0
54987525498750.3310.00.480.40.-90.-109.5012.293016.16715.440.00.00.0
54992125499210.3610.10.560.40.-100.-109.5012.393027.13715.350.00.00.0
54996825499680.3710.40.480.40.-90.-99.4312.393026.0715.150.00.00.0
55001425500140.2910.40.490.40.-90.-109.5012.293021.67715.60.00.00.0
55006425500640.399.970.470.40.-90.-109.5012.293024.93714.850.00.00.0
55011025501100.3710.00.490.40.-90.-109.5012.293030.39715.60.00.00.0
55015625501560.3710.00.470.40.-90.-109.5012.393029.38715.250.00.00.0
55019925501990.3410.20.490.40.-90.-109.5612.393027.13715.640.00.00.0
55024525502450.3410.40.500.40.-90.-99.4312.293017.28715.540.00.00.0
55029125502910.3010.00.490.40.-90.-109.5012.393024.93714.860.00.00.0
55033725503370.3510.30.490.40.-90.-109.5012.293022.68715.150.00.00.0
55038325503830.3610.20.460.40.-90.-109.4312.293019.48714.860.00.00.0
55042925504290.319.970.460.40.-90.-99.5612.393020.55715.60.00.00.0
55047525504750.379.990.470.40.-90.-109.4312.293022.68715.440.00.00.0
55052425505240.3710.00.470.40.-90.-109.5012.393023.81714.960.00.00.0
55058125505810.359.960.520.40.-90.-109.5012.193019.48715.250.00.00.0
55062725506270.309.990.490.40.-90.-109.5012.293021.67714.760.00.00.0
55067325506730.3610.10.510.40.-100.-109.4312.293022.75715.150.00.00.0
55071925507190.3310.40.500.40.-90.-109.5012.293026.6715.440.00.00.0
55076525507650.419.990.460.40.-90.-99.5612.393024.93714.660.00.00.0
55081125508110.3510.20.470.40.-90.-109.5012.393026.0714.660.00.00.0
55085725508570.369.980.470.40.-90.-109.5012.293027.13715.440.00.00.0
55090025509000.3610.30.460.40.-90.-109.5012.293029.32715.50.00.00.0
55094625509460.3610.00.460.40.-90.-99.5012.293024.93716.30.00.00.0
55099325509930.3310.10.520.40.-90.-99.5612.293024.93714.760.00.00.0
55103925510390.3610.00.460.40.-90.-109.5612.393034.78715.350.00.00.0
55109025510900.3510.20.480.40.-90.-99.5012.193026.6714.960.00.00.0
55113625511360.3010.30.510.40.-90.-99.5012.393019.53714.860.00.00.0
55118225511820.369.940.430.40.-90.-109.5612.393020.55714.850.00.00.0
55123025512300.3510.30.480.40.-90.-109.5012.393022.75715.50.00.00.0
55127625512760.3310.10.540.40.-90.-109.5012.393023.81715.250.00.00.0
55132225513220.339.970.410.40.-90.-109.5012.393018.41715.250.00.00.0
55136825513680.3810.00.470.40.-90.-99.5612.393022.75715.740.00.00.0
55141425514140.3310.30.470.40.-90.-109.5612.393028.20714.960.00.00.0
55146025514600.3710.10.540.40.-90.-109.5012.393024.88714.660.00.00.0
55150625515060.3610.20.510.40.-90.-109.5012.393028.14715.250.00.00.0
55155225515520.339.960.450.40.-90.-99.5612.393023.87715.640.00.00.0
55159925515990.349.980.460.40.-90.-109.5012.293025.0715.250.00.00.0
55164525516450.3310.20.480.40.-90.-99.5612.293023.87715.830.00.00.0
55169125516910.3310.40.490.40.-90.-99.5012.293027.13715.60.00.00.0
55173725517370.3810.30.500.40.-90.-109.5612.393023.87714.960.00.00.0
55178325517830.359.990.520.40.-90.-109.5612.293028.20715.60.00.00.0
55182925518290.309.990.430.40.-90.-99.5612.393018.35715.640.00.00.0
55187525518750.3010.40.540.40.-90.-109.5012.393027.13715.60.00.00.0
55192325519230.3710.10.480.40.-100.-109.5012.393028.25715.60.00.00.0
55196925519690.3010.10.440.40.-90.-109.4312.293022.75715.50.00.00.0
55201625520160.4010.00.470.40.-90.-99.5012.293023.87714.960.00.00.0
55206225520620.3310.40.480.40.-90.-109.5012.393017.28715.150.00.00.0
55211225521120.3510.00.510.40.-90.-109.4312.393028.25715.150.00.00.0
55215825521580.309.980.560.40.-90.-109.5612.393021.62715.440.00.00.0
55220425522040.3010.00.440.40.-90.-109.5012.393023.81715.540.00.00.0
55225025522500.3610.50.490.40.-90.-109.5012.293017.28715.150.00.00.0
55229325522930.3510.40.470.40.-90.-109.5012.293018.41715.250.00.00.0
55233925523390.3410.40.470.40.-90.-99.5012.393024.93715.440.00.00.0
55238525523850.3610.20.470.40.-90.-109.5612.393023.81715.540.00.00.0
55243125524310.339.950.430.40.-90.-99.5012.293026.0715.250.00.00.0
55247725524770.3310.00.500.40.-90.-99.5012.393019.42714.560.00.00.0
55252325525230.329.960.460.40.-90.-109.5012.393021.56715.450.00.00.0
55256925525690.3310.10.470.40.-90.-109.5012.293024.93714.860.00.00.0
55261625526160.3610.10.480.40.-90.-109.5012.293020.49715.640.00.00.0
55266225526620.3310.20.520.40.-90.-109.5612.293021.62715.60.00.00.0
55270825527080.359.920.390.40.-90.-109.5012.293020.49715.450.00.00.0
55275425527540.3610.00.460.40.-90.-99.5012.393026.0715.150.00.00.0
55280025528000.319.980.480.40.-90.-109.5012.493026.0715.60.00.00.0
55284625528460.3710.10.470.40.-90.-109.5012.393027.7714.860.00.00.0
55289225528920.369.990.450.40.-90.-109.5612.393022.68715.540.00.00.0
55293825529380.4010.00.460.40.-90.-99.5012.293027.13715.640.00.00.0
55298125529810.3010.40.480.40.-90.-109.4312.393021.67715.50.00.00.0
55302825530280.4010.00.470.40.-90.-109.5012.293022.68715.740.00.00.0
55307425530740.3610.10.460.40.-90.-99.5012.293020.55714.850.00.00.0
55312525531250.369.980.360.40.-90.-109.5012.293029.32715.150.00.00.0
55317125531710.3610.10.490.40.-90.-99.5612.393021.62715.250.00.00.0
55321725532170.319.980.440.40.-90.-109.5612.393029.27715.540.00.00.0
55326325532630.3410.40.460.40.-100.-109.5012.293022.75715.160.00.00.0
55330625533060.299.950.420.40.-90.-109.5012.393024.88715.350.00.00.0
55335225533520.3610.30.470.40.-90.-99.5012.393026.0715.250.00.00.0
55339825533980.2910.10.480.40.-90.-109.5612.393024.88715.150.00.00.0
55344425534440.4010.20.500.40.-90.-109.5012.393028.20716.130.00.00.0
55349025534900.349.980.460.40.-90.-109.5012.393023.81714.570.00.00.0
55353625535360.2610.10.410.40.-90.-99.5012.393022.75715.60.00.00.0
55358225535820.3110.40.550.40.-90.-109.5012.393020.55715.150.00.00.0
55363925536390.3510.30.470.40.-90.-109.5012.193020.60714.950.00.00.0
55368225536820.3310.10.390.40.-90.-109.5012.293027.18715.540.00.00.0
55372825537280.3510.30.460.40.-90.-99.5612.293020.60715.350.00.00.0
55377425537740.3810.10.500.40.-90.-109.5012.293024.93715.640.00.00.0
55382025538200.339.950.430.40.-90.-109.5612.293023.87715.540.00.00.0
55386625538660.3610.10.480.40.-90.-99.5012.393026.0715.450.00.00.0
55391225539120.3010.40.510.40.-90.-109.4312.293027.13715.350.00.00.0
55395825539580.3610.10.490.40.-90.-109.5012.393029.27715.60.00.00.0
55400125540010.359.990.500.40.-90.-109.5612.393023.75715.540.00.00.0
55404825540480.4310.00.440.40.-90.-109.5012.393022.68714.960.00.00.0
55409425540940.409.980.490.40.-90.-109.5012.393022.75714.860.00.00.0
55414525541450.3510.10.470.40.-90.-109.5012.293026.0714.950.00.00.0
55419125541910.359.990.470.40.-90.-109.5612.393028.20715.250.00.00.0
55423725542370.369.960.420.40.-90.-99.5612.293020.55715.150.00.00.0
55428325542830.3610.10.440.40.-90.-99.5612.393024.93715.60.00.00.0
55432925543290.3210.10.450.40.-90.-109.5612.293021.67715.350.00.00.0
55437225543720.3810.20.440.40.-90.-99.5012.293029.32714.760.00.00.0
55441825544180.3210.40.380.40.-90.-109.5012.293027.13715.60.00.00.0
55446425544640.3410.00.540.40.-90.-99.5012.293024.93714.660.00.00.0
55451025545100.349.990.480.40.-90.-99.5612.393023.81715.640.00.00.0
55455625545560.319.990.410.40.-90.-109.5612.393020.49715.150.00.00.0
55460225546020.3510.20.450.40.-90.-109.5012.393020.55715.640.00.00.0
55484325548430.339.950.450.40.-90.-109.5011.9193028.75714.880.00.00.0
55572825557280.429.980.490.40.-90.-109.5011.8793031.22715.80.00.00.0
55629525562950.3310.30.510.40.-90.-109.5611.8793026.89715.280.00.00.0
55634625563460.3610.00.470.40.-90.-109.5611.9193025.54714.900.00.00.0
55639225563920.349.980.490.40.-90.-109.5611.9493019.92715.310.00.00.0
55643825564380.369.980.440.40.-90.-109.5011.9693028.59714.730.00.00.0
55648425564840.3410.20.470.40.-90.-109.4311.9893021.95715.520.00.00.0
55653025565300.339.980.450.40.-90.-99.5011.9993028.42715.530.00.00.0
55657825565780.2910.00.380.40.-90.-109.5012.093023.98715.330.00.00.0
55662425566240.3310.20.500.40.-90.-99.5012.093025.10715.140.00.00.0
55667025566700.349.980.460.40.-90.-109.5012.093021.78715.820.00.00.0
55671625567160.389.980.430.40.-90.-109.5612.093031.57715.240.00.00.0
55676325567630.349.960.470.40.-90.-99.5012.193027.18714.460.00.00.0
55680925568090.3410.00.490.40.-90.-109.5012.193025.0715.540.00.00.0
55685925568590.3710.30.490.40.-90.-109.5612.193022.80715.440.00.00.0
55690525569050.339.950.440.40.-90.-109.5012.193025.5715.50.00.00.0
55694825569480.349.960.450.40.-90.-99.5012.193023.92715.40.00.00.0
55699425569940.2910.20.430.40.-90.-99.5012.293025.5715.340.00.00.0
55704025570400.339.990.520.40.-90.-99.5012.193025.5715.340.00.00.0
55708625570860.3810.00.500.40.-90.-109.4312.193027.18715.630.00.00.0
55713225571320.359.970.440.40.-90.-109.5012.293027.18714.960.00.00.0
55717825571780.3610.00.500.40.-90.-99.5012.293024.93715.50.00.00.0
55722425572240.349.990.460.40.-90.-109.5012.293023.87715.250.00.00.0
55727225572720.3310.30.440.40.-90.-109.5012.293020.60715.250.00.00.0
55731825573180.3610.00.480.40.-90.-109.5612.293027.13714.850.00.00.0
55736825573680.3510.00.500.40.-90.-109.5612.293020.60714.850.00.00.0
55741425574140.3310.10.470.40.-90.-109.5612.293020.60714.850.00.00.0
55746025574600.3410.00.440.40.-90.-109.5612.293031.52715.440.00.00.0
55750625575060.3710.20.480.40.-90.-99.5612.393018.41714.560.00.00.0
55755225575520.3410.20.470.40.-90.-99.5612.293023.87714.850.00.00.0
55759825575980.419.980.470.40.-90.-109.5012.293022.75715.540.00.00.0
55764125576410.3910.30.470.40.-90.-109.5612.293030.45715.440.00.00.0
55768725576870.369.950.420.40.-90.-99.5012.293025.0714.850.00.00.0
55773325577330.3510.20.470.40.-90.-99.5012.293027.13715.50.00.00.0
55778025577800.309.980.440.40.-90.-109.5012.293028.20714.850.00.00.0
55782625578260.3110.10.390.40.-90.-109.5612.393022.75715.640.00.00.0
55788525578850.3710.20.480.40.-90.-99.5612.193026.12715.340.00.00.0
55793125579310.3410.10.490.40.-90.-99.5612.193021.67715.920.00.00.0
55797925579790.349.990.520.40.-90.-109.5012.293034.84715.540.00.00.0
55802525580250.3810.00.490.40.-90.-109.5612.293023.87715.440.00.00.0
55807125580710.3410.00.460.40.-100.-109.5012.293025.0715.740.00.00.0
55811725581170.3010.20.420.40.-90.-99.5012.293023.81715.150.00.00.0
55816325581630.349.980.500.40.-90.-109.5612.293026.0714.850.00.00.0
55820925582090.3510.00.460.40.-90.-109.5012.293022.75715.450.00.00.0
55825525582550.369.960.440.40.-90.-99.5612.393027.13715.640.00.00.0
55830125583010.3110.10.440.40.-90.-99.5012.293020.55715.250.00.00.0
55834425583440.3710.00.500.40.-90.-109.5012.393020.60715.350.00.00.0
55839525583950.369.990.440.40.-90.-109.5012.393029.38715.150.00.00.0
55844125584410.3110.40.440.40.-90.-109.3712.293018.41715.250.00.00.0
55848725584870.3510.20.490.40.-90.-109.5012.193023.87714.960.00.00.0
55853325585330.3910.30.480.40.-90.-99.5012.193018.35714.960.00.00.0
55857925585790.329.970.460.40.-90.-109.5012.393031.52715.150.00.00.0
55862525586250.3310.10.490.40.-90.-109.4312.393022.75715.540.00.00.0
55867325586730.319.980.440.40.-90.-109.5012.293014.2715.450.00.00.0
55871925587190.3110.40.430.40.-90.-99.5012.293032.64715.250.00.00.0
55876525587650.3310.20.510.40.-90.-99.4312.393022.75715.150.00.00.0
55881225588120.379.960.480.40.-90.-109.4312.293022.75714.960.00.00.0
55885825588580.3610.30.480.40.-90.-99.5012.293024.93715.150.00.00.0
55890825589080.3810.10.500.40.-90.-109.5012.293027.13715.640.00.00.0
55895425589540.389.980.470.40.-90.-109.5612.293022.75714.470.00.00.0
55900025590000.2810.10.420.40.-90.-99.5612.293026.0715.150.00.00.0
55904325590430.3210.40.480.40.-90.-109.5012.393028.20714.960.00.00.0
55908925590890.369.970.450.40.-90.-109.5612.393020.60714.960.00.00.0
55913525591350.3310.70.470.40.-90.-109.5012.393021.67714.960.00.00.0
55918125591810.3610.10.460.40.-90.-99.5012.293024.93714.860.00.00.0
55922725592270.3310.10.540.40.-90.-109.5012.293024.93715.350.00.00.0
55927325592730.2910.10.430.40.-90.-109.5012.393023.87715.250.00.00.0
55931925593190.379.980.500.40.-90.-109.5012.193027.13714.860.00.00.0
55936725593670.3910.00.490.40.-90.-109.5012.393013.96714.860.00.00.0
55941725594170.3210.30.450.40.-90.-109.5012.393017.28715.640.00.00.0
55946325594630.369.960.460.40.-90.-109.4312.293036.98714.960.00.00.0
55950925595090.3410.00.470.40.-90.-99.5012.393027.13714.760.00.00.0
55955525595550.349.970.410.40.-90.-109.5012.393024.93715.540.00.00.0
55960125596010.2810.40.450.40.-90.-109.5012.293027.13715.60.00.00.0
55964725596470.3210.20.470.40.-90.-109.5012.393022.75715.350.00.00.0
55969325596930.3310.10.550.40.-90.-99.5012.293025.0714.960.00.00.0
55973625597360.3910.10.470.40.-100.-109.5012.293027.18714.660.00.00.0
55978225597820.3310.50.490.40.-90.-109.5012.293018.35715.250.00.00.0
55982925598290.299.990.410.40.-90.-109.5012.293024.93715.250.00.00.0
55987525598750.3510.20.480.40.-90.-109.5012.393026.6714.960.00.00.0
55992525599250.379.990.480.40.-90.-109.5012.293023.87715.350.00.00.0
55997125599710.2810.40.460.40.-90.-99.5012.193030.39714.960.00.00.0
56001725600170.389.960.500.40.-90.-109.5612.293024.93715.60.00.00.0
56006025600600.3810.30.500.40.-80.-99.5612.393028.20714.370.00.00.0
56010625601060.4010.00.480.40.-90.-109.5012.393022.75714.860.00.00.0
56015225601520.3310.10.510.40.-90.-99.5012.393026.0715.160.00.00.0
56019825601980.4010.00.490.40.-90.-109.5012.393024.93715.450.00.00.0
56024425602440.3810.20.480.40.-90.-109.4312.393027.13714.660.00.00.0
56029025602900.329.960.450.40.-90.-109.5012.393027.7715.840.00.00.0
56033625603360.3510.40.480.40.-90.-109.5012.393020.55714.760.00.00.0
56038225603820.3610.10.490.40.-90.-109.4312.293024.93714.460.00.00.0
56043625604360.3010.20.470.40.-90.-109.5612.193023.87715.150.00.00.0
56048225604820.3610.10.380.40.-90.-109.5012.193023.87715.450.00.00.0
56052825605280.4010.00.480.40.-90.-99.5612.293023.87715.540.00.00.0
56057425605740.3010.20.430.40.-90.-109.5612.293021.67714.850.00.00.0
56062025606200.3710.10.490.40.-90.-109.5612.293026.0715.640.00.00.0
56066625606660.3310.20.480.40.-90.-99.5612.393034.78714.760.00.00.0
56071225607120.3410.10.480.40.-90.-99.5612.293022.75714.960.00.00.0
56075525607550.319.990.490.40.-90.-99.4312.393027.7715.830.00.00.0
56080125608010.3810.20.530.40.-100.-109.5012.393027.7715.450.00.00.0
56084825608480.3710.40.470.40.-90.-109.5012.393022.68715.250.00.00.0
56089425608940.339.990.510.40.-90.-109.5012.293023.81715.60.00.00.0
56094525609450.3510.40.500.40.-90.-109.5612.293027.13715.250.00.00.0
56099125609910.329.950.440.40.-90.-109.5012.293028.20714.760.00.00.0
56103725610370.3510.30.500.40.-90.-109.5012.293027.7715.250.00.00.0
56108325610830.3410.10.520.40.-90.-99.5612.393031.52715.250.00.00.0
56112625611260.3510.00.460.40.-90.-109.5012.293026.6714.960.00.00.0
56117225611720.3210.40.380.40.-100.-109.4312.293027.13715.350.00.00.0
56121825612180.4210.00.440.40.-90.-109.5012.293024.93715.60.00.00.0
56126425612640.3310.20.510.40.-90.-99.4312.393026.6715.150.00.00.0
56131025613100.339.950.520.40.-90.-109.5012.393022.75715.540.00.00.0
56135625613560.3110.30.440.40.-90.-109.5612.393028.20714.960.00.00.0
56140225614020.3410.00.510.40.-90.-109.5612.393024.88714.860.00.00.0
56144925614490.3310.10.460.40.-90.-109.5012.393023.87715.150.00.00.0
56149525614950.4110.20.440.40.-90.-109.5012.393020.49715.60.00.00.0
56154125615410.3510.20.500.40.-90.-99.5612.393028.20714.960.00.00.0
56158725615870.3310.10.450.40.-90.-109.5612.393023.81714.960.00.00.0
56163325616330.3410.10.560.40.-90.-109.5012.393023.81715.350.00.00.0
56167925616790.369.990.440.40.-90.-109.5012.393031.52715.350.00.00.0
56172525617250.3610.10.480.40.-90.-99.5012.293023.81714.760.00.00.0
56177125617710.389.980.430.40.-90.-109.5012.293024.93715.440.00.00.0
56181425618140.379.990.460.40.-90.-109.5012.393024.93714.760.00.00.0
56186125618610.3710.20.480.40.-90.-109.5012.293019.48715.60.00.00.0
56190725619070.3010.30.520.40.-90.-109.5012.293022.75715.930.00.00.0
56195725619570.3510.20.450.40.-90.-109.5612.293028.20714.660.00.00.0
56200325620030.2910.00.460.40.-90.-109.5612.293028.25715.350.00.00.0
56204925620490.3310.00.450.40.-90.-109.5012.393028.20715.440.00.00.0
56209525620950.3410.20.490.40.-90.-109.5612.293022.75715.150.00.00.0
56213825621380.3310.30.490.40.-90.-99.5012.293027.13714.960.00.00.0
56218425621840.369.980.480.40.-90.-99.5012.293022.75715.350.00.00.0
56223025622300.329.950.440.40.-90.-109.5012.393024.93715.740.00.00.0
56227625622760.3710.30.460.40.-90.-109.5012.393024.93715.150.00.00.0
56232225623220.2910.20.420.40.-90.-109.6212.293024.93715.350.00.00.0
56236825623680.399.980.460.40.-90.-99.5012.293019.48715.160.00.00.0
56241425624140.3610.00.500.40.-90.-109.5012.393022.68715.250.00.00.0
56246425624640.3510.10.500.40.-90.-109.4312.393024.93714.960.00.00.0
56251025625100.3110.30.470.40.-90.-109.5012.293023.87714.860.00.00.0
56255625625560.3510.00.550.40.-90.-109.5012.393023.81714.760.00.00.0
56260225626020.3710.30.490.40.-90.-109.5012.293024.88715.740.00.00.0
56264825626480.359.980.470.40.-90.-99.5012.293027.7715.250.00.00.0
56269425626940.2610.30.580.40.-90.-109.5012.393029.27714.960.00.00.0
56274025627400.3010.30.460.40.-90.-109.5012.293027.7715.60.00.00.0
56278625627860.369.980.550.40.-90.-109.5012.293023.87714.960.00.00.0
56282925628290.399.980.490.40.-90.-109.5012.293027.13714.760.00.00.0
56287625628760.329.970.570.40.-90.-109.5012.393026.0714.570.00.00.0
56292225629220.379.980.490.40.-90.-99.5612.393026.0714.660.00.00.0
56297225629720.2810.20.420.40.-90.-109.5012.293021.67715.350.00.00.0
56301825630180.3410.30.470.40.-90.-109.5012.293025.0715.440.00.00.0
56306425630640.3610.10.470.40.-90.-99.5012.293018.35715.150.00.00.0
56311025631100.3510.10.480.40.-90.-99.5012.393026.0715.450.00.00.0
56315625631610.3410.20.450.40.-90.-109.5012.393021.67715.340.00.00.0
56320225632020.369.980.440.40.-90.-99.5012.393029.32715.150.00.00.0
56324825632480.3710.20.470.40.-90.-99.5612.293026.6715.540.00.00.0
56329425632940.319.950.440.40.-90.-99.5012.393024.88715.450.00.00.0
56334025633400.3310.50.520.40.-90.-109.4312.393020.60715.250.00.00.0
56338625633860.3410.40.480.40.-90.-109.5012.393026.0714.960.00.00.0
56343225634320.3210.30.520.40.-90.-99.5012.393021.62715.250.00.00.0
56348925634890.3310.10.450.40.-90.-109.5012.293018.0715.480.00.00.0
56372525637250.329.980.450.40.-90.-99.5611.9493029.82714.920.00.00.0
56377125637710.369.990.530.40.-90.-99.5011.9693026.39715.320.00.00.0
56381725638170.3310.30.470.40.-90.-109.5611.9793021.89715.230.00.00.0
56386325638630.3610.10.490.40.-90.-109.5011.9993030.57715.140.00.00.0
56391025639100.3810.20.500.40.-90.-99.5012.093025.5715.240.00.00.0
56395625639560.3010.40.500.40.-90.-109.5012.193028.32715.50.00.00.0
56452225645220.4710.60.450.20.-100.-109.5011.8993023.57715.80.00.00.0
5649032564903-1.-1510.210.-910.110.-20.-219.5611.8793021.32715.470.00.00.0
56495025649500.-510.150.440.60.-60.-119.5011.9293023.30715.200.00.00.0
56499625649960.-7410.30.-530.80.-100.-159.5611.9493021.0715.120.00.00.0
56504225650420.-4510.80.-20.00.-80.-89.6211.9693020.88714.930.00.00.0
56508825650880.210.20.420.20.-100.-79.5011.9793016.38714.640.00.00.0
56513425651340.010.50.250.10.-90.-69.5611.9993028.42715.330.00.00.0
56518025651800.269.980.540.20.-100.-79.5612.093026.17714.940.00.00.0
56522625652260.429.910.590.40.-100.-99.5012.193025.5714.750.00.00.0
56526925652690.339.930.500.60.-90.-119.5612.193021.78715.50.00.00.0
56531525653150.-410.10.30.70.-70.-139.5012.093023.98715.730.00.00.0
56536125653610.-2910.20.180.50.-70.-119.5012.193025.0714.950.00.00.0
56541125654110.210.50.200.60.-100.-119.5012.093028.32714.950.00.00.0
56545725654570.-510.20.-80.50.-100.-109.5012.193029.38715.140.00.00.0
56550325655030.219.900.190.50.-90.-119.5612.293028.32715.340.00.00.0
56554925655490.2810.120.220.50.-90.-129.4312.193023.87715.340.00.00.0
56559225655920.1410.80.310.50.-80.-159.5612.193024.93714.860.00.00.0
56563825656380.1910.60.460.60.-70.-159.4312.293021.67715.540.00.00.0
56568425656840.-1410.250.550.80.-70.-169.5012.293020.55714.860.00.00.0
56573025657300.-299.770.270.100.-60.-169.5012.393027.13715.160.00.00.0
56577625657760.-1810.110.350.100.-90.-149.5012.293020.60715.250.00.00.0
56582225658220.810.260.380.100.-90.-149.5012.293022.80715.150.00.00.0
56586825658680.-509.910.-320.110.-80.-179.5612.393024.93715.540.00.00.0
56592125659210.-359.950.60.100.-90.-149.5012.193022.85714.660.00.00.0
56596825659680.-2510.260.-160.70.-90.-129.5012.293023.87715.150.00.00.0
56601425660140.-2610.10.-70.90.-90.-139.5012.293026.6715.150.00.00.0
56606025660600.-2310.120.30.60.-80.-109.5612.293020.55715.440.00.00.0
56610625661060.-409.670.-470.80.-100.-119.5012.393017.28715.250.00.00.0
56615225661520.-1110.360.210.50.-70.-109.5612.293018.35715.50.00.00.0
56619825661980.-599.710.-440.80.-110.-119.5612.293021.67714.960.00.00.0
56624425662440.-109.870.260.30.-90.-109.5012.293032.64715.150.00.00.0
56628725662870.-2510.360.-260.60.-100.-119.5012.193019.48715.150.00.00.0
56633325663330.-409.930.10.40.-80.-119.5012.293028.25715.50.00.00.0
56637925663790.-339.930.-20.50.-90.-89.5012.293027.13714.960.00.00.0
56643025664300.-2210.100.-10.50.-80.-109.5012.193025.0715.150.00.00.0
56647625664760.-1510.30.210.50.-100.-109.5012.293026.6714.960.00.00.0
56652225665220.-359.970.-210.70.-80.-119.5012.293027.13715.250.00.00.0
56656825665680.-510.110.20.60.-80.-99.5612.293023.87715.440.00.00.0
56661125666110.-679.880.-430.80.-80.-139.5012.293020.60715.150.00.00.0
56665725666570.-1710.40.150.50.-100.-99.4312.393023.87714.860.00.00.0
56670325667030.-359.850.-360.70.-80.-119.5012.293028.20715.50.00.00.0
56674925667490.-239.870.-120.50.-90.-99.5012.293026.6715.60.00.00.0
56679525667950.-3910.160.-220.50.-90.-119.5012.293024.93714.850.00.00.0
56684125668410.-4810.40.-230.30.-90.-99.5612.393026.6715.930.00.00.0
56688725668870.-239.950.-200.40.-100.-109.5012.393020.49714.570.00.00.0
56694325669430.-1710.00.240.10.-90.-99.5012.293025.0714.850.00.00.0
56699025669900.-2210.50.-360.40.-100.-109.5612.293023.87715.50.00.00.0
56703625670360.-179.960.10.30.-80.-109.5012.293030.45714.960.00.00.0
56708225670820.-2010.30.-30.60.-90.-129.5012.293022.75715.250.00.00.0
56712825671280.-4810.30.-260.40.-90.-119.5012.293022.75715.250.00.00.0
56717425671740.-479.850.50.50.-60.-119.5012.393022.75715.930.00.00.0
56722025672200.-5510.120.-250.40.-100.-109.5012.393024.93714.170.00.00.0
56726625672680.-189.930.-280.40.-100.-99.5012.193026.6714.960.00.00.0
56730925673090.-3410.100.-70.30.-80.-99.5612.293027.18715.150.00.00.0
56735525673550.-1010.30.-130.30.-100.-99.5612.393027.13714.960.00.00.0
56740125674010.-3410.40.-200.20.-80.-109.5012.293018.35715.50.00.00.0
56745225674520.-3510.00.-80.40.-90.-109.5012.293027.13715.350.00.00.0
56749825674980.-2010.70.170.30.-80.-119.5612.293024.93714.460.00.00.0
56754425675440.-339.890.-240.50.-100.-99.5012.293029.32715.150.00.00.0
56759025675900.-2310.260.220.40.-80.-109.5612.393028.32715.150.00.00.0
56763325676330.-369.700.-560.50.-100.-99.5012.293028.25715.50.00.00.0
56767925676790.-2410.290.40.40.-80.-109.5612.293028.20715.350.00.00.0
56772525677250.-299.940.-150.50.-90.-99.5012.393026.0715.540.00.00.0
56777125677710.-429.980.40.20.-90.-109.5612.393020.55715.540.00.00.0
56781725678170.-2810.170.-110.40.-90.-109.5612.393021.56715.250.00.00.0
56786325678630.-279.980.-250.30.-90.-99.5012.393023.81714.760.00.00.0
56790925679090.-910.170.300.30.-90.-99.5612.393026.0714.570.00.00.0
56795625679560.-529.910.-330.40.-80.-109.5012.393025.95715.440.00.00.0
56800325680030.-159.960.230.50.-80.-109.5012.393029.32714.760.00.00.0
56804925680490.-4910.70.-580.60.-90.-109.5012.393027.7715.150.00.00.0
56809525680950.-3210.150.270.50.-80.-109.6212.393023.81715.250.00.00.0
56814125681410.-3410.270.-460.40.-120.-99.5612.393022.75715.150.00.00.0
56818725681870.-169.700.130.30.-90.-99.5012.393019.48715.450.00.00.0
56823325682330.-5710.260.-460.40.-90.-99.5012.293023.81715.60.00.00.0
56828125682810.-379.990.-30.40.-100.-99.5012.393027.13714.960.00.00.0
56832725683270.-3610.40.-100.30.-80.-109.5012.393027.13715.640.00.00.0
56837325683730.-139.990.20.30.-110.-99.5612.393026.0714.960.00.00.0
56841925684190.-3210.90.-50.30.-70.-109.5012.393021.62714.760.00.00.0
56846925684690.-319.580.-50.60.-90.-109.5012.293022.75715.250.00.00.0
56851525685150.-410.260.-150.50.-130.-99.5012.293024.93715.60.00.00.0
56856125685610.-4710.140.-90.20.-90.-139.5612.393022.75715.250.00.00.0
56860725686070.-769.820.-590.40.-140.-109.5612.293029.32714.960.00.00.0
56865025686500.-1110.50.-160.10.-130.-69.5012.293022.75715.540.00.00.0
56869625686960.-199.890.-380.20.-110.-89.5612.393022.75715.150.00.00.0
56874225687420.-1710.80.130.20.-80.-109.5012.393020.55715.930.00.00.0
56878825687880.-179.980.200.30.-100.-109.5012.393021.62715.150.00.00.0
56883425688340.-410.280.170.60.-90.-129.5012.293024.93715.160.00.00.0
56888025688800.-129.420.200.70.-70.-129.5012.393024.93716.30.00.00.0
56892625689260.-6810.180.-670.70.-100.-89.5012.393020.55714.760.00.00.0
56897325689730.-4110.630.-270.70.-110.-119.5012.293031.52715.640.00.00.0
56902025690200.-919.620.-410.30.-90.-89.5012.393026.6715.50.00.00.0
56906625690660.010.20.-90.00.-110.-59.5012.393029.32715.150.00.00.0
56911225691120.1210.70.-30.30.-100.-99.5012.293024.88714.960.00.00.0
56915825691580.-199.860.00.20.-70.-109.5012.393023.87715.450.00.00.0
56920425692040.-3210.60.270.40.-80.-119.4312.393032.53715.540.00.00.0
56925025692500.-549.920.-220.60.-100.-109.5012.393021.62714.760.00.00.0
56929825692980.-2510.00.-150.60.-100.-99.5012.393031.46714.960.00.00.0
56934425693440.-4010.50.-440.50.-90.-99.5012.393018.30715.150.00.00.0
56939025693900.-2810.40.-160.30.-90.-99.5012.293032.59715.160.00.00.0
56943625694360.-4210.40.-240.30.-90.-89.5012.393022.75715.350.00.00.0
56948625694860.-2210.20.-110.20.-100.-89.5612.293028.20715.440.00.00.0
56953225695320.-2610.00.-150.20.-90.-99.5012.393024.93715.150.00.00.0
56957825695780.-3110.10.00.30.-90.-99.5612.393028.20714.960.00.00.0
56962425696240.-399.980.-90.30.-90.-89.5012.293029.32715.440.00.00.0
56966725696670.-2110.20.-10.30.-90.-89.5612.293026.0715.350.00.00.0
56971325697130.-2310.20.-80.30.-90.-89.5012.393026.0715.640.00.00.0
56975925697590.-229.980.-70.40.-90.-99.5612.293019.42714.860.00.00.0
56980525698050.-309.990.-280.30.-90.-89.5612.393026.6715.150.00.00.0
56985125698510.-2710.40.-160.20.-90.-79.5612.393023.81714.860.00.00.0
56989725698970.-3410.30.-190.20.-90.-79.5012.393023.87715.260.00.00.0
56994325699430.-1910.40.40.10.-100.-79.5012.393019.48715.150.00.00.0
56999725699970.-1610.00.-150.20.-90.-69.5012.393023.92715.240.00.00.0
57004425700440.-210.70.120.10.-90.-79.5012.293028.25715.440.00.00.0
57009025700900.-149.990.-110.10.-90.-79.5612.293029.32715.50.00.00.0
57013625701360.-2210.60.-50.10.-90.-89.5612.293019.48714.960.00.00.0
57018225701820.-1410.60.90.20.-90.-79.5612.293028.20715.350.00.00.0
57022825702280.-910.40.150.20.-90.-79.5012.393018.41715.250.00.00.0
57027425702740.-19.950.170.30.-100.-79.5612.293020.55714.960.00.00.0
57032025703220.-610.20.130.40.-90.-89.5612.393021.67715.440.00.00.0
57036325703630.139.980.160.50.-100.-89.5612.293023.81715.50.00.00.0
57040925704090.010.00.60.40.-90.-99.5612.393023.87715.350.00.00.0
57045525704550.09.960.00.50.-90.-119.5612.293019.42715.250.00.00.0
57050625705060.210.00.10.40.-90.-119.5012.293028.25714.470.00.00.0
57055225705520.-1410.20.-10.40.-90.-119.5012.293031.52715.640.00.00.0
57059825705980.-279.980.-60.40.-80.-119.5012.293026.6715.250.00.00.0
57064425706440.-2310.30.00.40.-80.-109.5612.293023.87714.960.00.00.0
57068725706870.-2310.00.-20.40.-90.-99.5612.293021.67714.960.00.00.0
57073325707330.-1110.10.00.40.-100.-89.5012.293024.93714.960.00.00.0
57077925707790.-59.980.60.30.-90.-89.5612.393020.55714.960.00.00.0
57082525708250.010.10.20.40.-90.-99.5612.393021.67715.250.00.00.0
57087125708710.510.20.10.40.-90.-119.5012.393027.13715.250.00.00.0
57091725709170.-129.990.-30.40.-90.-119.5612.393029.27715.350.00.00.0
57096325709630.-1810.80.10.40.-80.-109.5612.293024.88715.640.00.00.0
57101325710150.-2310.40.40.40.-90.-109.5012.393019.48715.340.00.00.0
57105725710570.-1810.70.40.40.-90.-99.5612.293020.60714.660.00.00.0
57110325711030.-910.60.00.40.-100.-99.5012.393024.93715.630.00.00.0
57114925711490.-610.20.-30.40.-90.-99.5012.293019.42714.960.00.00.0
57119525711950.99.970.80.40.-90.-99.5612.293021.62715.440.00.00.0
57124125712410.-29.980.20.40.-90.-109.5612.393023.81715.250.00.00.0
57128725712870.-119.990.00.40.-90.-119.4312.293022.75715.250.00.00.0
57133325713330.-2210.60.00.40.-90.-109.5612.293029.32715.60.00.00.0
57137625713760.-2010.40.-20.40.-90.-99.5612.293021.67715.150.00.00.0
57142225714220.-1910.70.-20.40.-90.-99.5612.393022.75715.540.00.00.0
57146825714680.-1110.40.10.40.-90.-99.5612.293016.16716.30.00.00.0
57151825715180.-310.20.20.40.-100.-99.5612.293028.20714.960.00.00.0
57156425715640.29.980.20.40.-90.-109.5612.293027.13715.540.00.00.0
57161025716100.-1110.30.10.40.-90.-119.5012.393023.81715.250.00.00.0
57165625716560.-1410.50.00.40.-90.-109.5612.393019.48715.60.00.00.0
57170225717040.-1910.60.50.40.-90.-109.5612.393019.48714.660.00.00.0
57174525717450.-1910.30.-10.40.-90.-109.5012.293022.75715.740.00.00.0
57179125717910.-1310.60.100.40.-100.-99.5612.293023.87715.60.00.00.0
57183725718370.-79.990.-20.40.-90.-99.5012.393029.32714.760.00.00.0
57188325718830.19.980.40.40.-90.-99.5012.393018.35714.960.00.00.0
57192925719290.-910.00.100.40.-90.-109.5012.393021.62714.860.00.00.0
57197525719750.-710.20.00.40.-100.-119.5612.393023.81715.250.00.00.0
57202525720250.-1510.60.00.40.-90.-109.5012.293029.32715.250.00.00.0
57206925720690.-2010.20.00.40.-90.-109.5012.293026.6715.730.00.00.0
57211525721150.-1610.30.20.40.-90.-99.5612.393019.48715.540.00.00.0
57216125721610.-1210.20.-10.40.-90.-99.5012.393027.13715.740.00.00.0
57220725722070.-210.00.40.40.-90.-99.5612.393024.93714.860.00.00.0
57225325722530.-39.980.00.40.-90.-109.4312.393020.55715.250.00.00.0
57229925722990.-810.30.00.40.-90.-109.5612.393024.93715.150.00.00.0
57234525723450.-1110.80.90.40.-90.-109.5012.393027.7715.540.00.00.0
57239125723940.-1710.40.20.40.-90.-109.5012.393029.32715.340.00.00.0
57243425724340.-1910.80.100.40.-90.-109.5012.393017.28715.150.00.00.0
57248025724800.-1810.70.00.40.-90.-109.5012.393028.20715.350.00.00.0
57324625732460.-810.40.30.40.-90.-99.5011.8893022.45715.180.00.00.0
57362025736200.-1110.40.00.40.-90.-99.5611.8793025.77714.980.00.00.0
57366625736660.-410.40.90.40.-90.-109.5011.9293025.54714.900.00.00.0
57371225737120.-79.990.-50.40.-90.-109.4311.9493022.7715.120.00.00.0
57375825737580.-1010.30.30.40.-90.-109.4311.9693023.13714.820.00.00.0
57380525738050.-1210.30.-10.40.-90.-109.5611.9793028.53715.420.00.00.0
57385125738510.-1510.40.10.40.-90.-99.5011.9893016.38715.230.00.00.0
57389725738970.-1510.30.20.40.-90.-109.4311.9993027.30715.530.00.00.0
57394325739430.-910.30.40.40.-90.-109.4311.9993022.85715.140.00.00.0
57398925739890.-710.30.10.40.-90.-99.5012.093022.85715.340.00.00.0
57403525740350.-1010.00.80.40.-90.-99.5612.093025.5714.850.00.00.0
57408125740810.-1210.40.40.40.-90.-109.6212.093022.80714.850.00.00.0
57412925741290.-1410.40.50.40.-90.-109.5612.193020.60715.530.00.00.0
57417525741750.-1410.40.20.40.-90.-109.5012.193023.87715.50.00.00.0
