millis(),Current_state,Calculated_flight_time,Time_since_last_log,IMU_accel_X,IMU_accel_Y,IMU_accel_Z,IMU_mag_X,IMU_mag_Y,IMU_mag_Z,IMU_gyro_X,IMU_gyro_Y,IMU_gyro_Z,IMU_temp,Raw_IMU_accel_X,Raw_IMU_accel_Y,Raw_IMU_accel_Z,Raw_IMU_mag_X,Raw_IMU_mag_Y,Raw_IMU_mag_Z,Raw_IMU_gyro_X,Raw_IMU_gyro_Y,Raw_IMU_gyro_Z,Raw_IMU_temp,BARO_temp,BARO_press,BARO_alt,Raw_BARO_temp,Raw_BARO_press,Raw_BARO_alt,Velocity_lastUpdate,Velocity_lastZAccel,Velocity_lastAlt,Velocity_inte,Velocity_diff,Velocity_est,Est_apogee,Target_air_brake_angle,Air_brake_angle,Battery_voltage,Z_accel_times_burnoutMass
4493,2,4493,4493,-8.444,-4.340,-11.534,45.925,23.981,45.188,1.95,0.651,-1.22,-491.0,-8.319,-4.335,-11.985,49.926,21.645,40.923,1.718,0.772,-1.237,-491.0,10.906,90525.882,940.707,10.906,90524.257,940.754,4493,-11.534,940.754,0.0,0.0,0.0,0.0,0.0,0.0,3.950,-6.791
4542,2,4542,49,-8.881,-3.818,-11.548,47.945,22.347,43.107,0.967,0.554,-1.61,-491.0,-9.748,-3.704,-12.638,51.37,20.140,40.207,0.386,0.54,0.909,-491.0,10.906,90526.546,940.646,10.906,90527.578,940.657,4542,-11.548,940.657,-565530.875,-1.968,2.62,0.0,0.0,0.0,3.950,-6.799
4583,2,4583,41,-9.515,-3.142,-11.498,49.277,21.128,41.917,0.924,0.513,0.978,-491.0,-10.983,-1.507,-11.590,51.563,19.29,40.61,0.220,0.602,0.891,-491.0,10.906,90526.15,940.652,10.911,90523.976,940.670,4583,-11.498,940.670,-1037994.375,0.309,1.990,0.0,0.0,0.0,3.957,-6.770
4619,2,4619,36,-9.573,-2.961,-11.535,50.418,20.342,40.923,0.735,0.466,0.804,-491.0,-10.351,-1.679,-11.274,51.710,18.532,40.105,0.167,0.571,0.260,-491.0,10.908,90524.570,940.783,10.920,90520.507,940.780,4619,-11.535,940.780,-1452607.875,3.44,1.916,0.0,0.0,0.0,3.957,-6.792
4663,2,4663,44,-9.644,-1.663,-12.537,51.157,19.523,40.613,0.385,0.488,0.670,-491.0,-8.822,2.907,-15.201,51.549,18.269,41.771,0.565,0.442,0.52,-491.0,10.915,90522.890,940.769,10.934,90518.101,940.986,4663,-12.537,940.986,-1982225.375,4.683,1.876,0.0,0.0,0.0,3.950,-7.382
4699,2,4699,36,-9.823,0.918,-12.333,51.449,18.813,40.888,0.139,0.437,0.448,-491.0,-9.209,0.610,-10.965,51.388,18.94,42.297,0.903,0.519,0.128,-491.0,10.922,90523.15,940.796,10.938,90524.890,940.889,4699,-12.333,940.889,-2429917.250,-2.678,2.87,0.0,0.0,0.0,3.957,-7.262
4741,2,4741,42,-9.680,0.380,-11.860,51.487,18.196,41.511,0.375,0.493,0.349,-491.0,-9.37,-1.12,-10.269,51.227,17.56,43.320,0.797,0.333,0.415,-491.0,10.928,90522.679,940.823,10.938,90525.945,940.792,4741,-11.860,940.792,-2937993.750,-2.307,2.74,0.0,0.0,0.0,3.957,-6.983
4777,2,4777,36,-9.487,0.132,-11.492,51.566,17.512,42.423,0.552,0.417,0.247,-491.0,-10.13,0.265,-9.752,51.958,15.609,44.621,0.661,0.218,0.382,-491.0,10.933,90522.593,940.991,10.934,90523.539,941.508,4777,-11.492,941.508,-3358344.250,19.877,1.626,0.0,0.0,0.0,3.957,-6.766
4820,2,4820,43,-9.456,0.94,-11.178,51.917,16.860,43.300,0.627,0.320,0.266,-491.0,-10.200,0.545,-9.702,53.463,15.273,44.489,0.207,0.89,0.355,-491.0,10.935,90523.468,940.850,10.934,90524.890,940.77,4820,-11.178,940.77,-3845767.500,-33.269,525.953,0.0,0.0,0.0,3.970,-6.581
4856,2,4856,36,-9.906,0.801,-10.161,52.256,16.126,43.849,0.507,0.294,0.318,-491.0,-11.69,-1.572,-10.118,53.244,14.600,44.519,0.32,0.310,0.309,-491.0,10.937,90525.484,940.732,10.943,90528.210,940.393,4856,-10.161,940.393,-4229887.0,8.782,1.791,0.0,0.0,0.0,3.957,-5.983
4898,2,4898,42,-9.963,0.963,-9.965,52.791,15.448,44.182,0.276,0.280,0.326,-491.0,-9.497,-1.421,-9.982,54.63,14.703,43.963,0.251,0.451,0.172,-491.0,10.936,90526.179,940.589,10.934,90528.351,940.174,4898,-9.965,940.174,-4652550.0,-5.219,2.185,0.0,0.0,0.0,3.957,-5.867
4934,2,4934,36,-10.51,-1.3,-9.955,53.154,14.966,44.381,0.72,0.259,0.241,-491.0,-9.475,-1.213,-10.219,53.40,14.644,44.314,0.220,0.227,0.13,-491.0,10.934,90524.859,940.548,10.924,90519.304,940.586,4934,-9.955,940.586,-5011111.0,11.445,1.744,0.0,0.0,0.0,3.957,-5.861
4977,2,4977,43,-10.180,-1.91,-10.12,53.522,14.755,44.375,0.136,0.303,0.175,-491.0,-10.660,0.703,-10.39,53.800,14.557,44.592,0.384,0.441,0.52,-491.0,10.934,90524.710,940.421,10.934,90522.773,940.876,4977,-10.12,940.876,-5440411.0,6.739,1.831,0.0,0.0,0.0,3.957,-5.895
5013,2,5013,36,-10.91,-1.272,-10.95,53.466,14.714,44.472,0.240,0.437,0.134,-491.0,-9.755,-1.450,-10.118,53.186,15.68,44.972,0.312,0.758,0.151,-491.0,10.933,90524.46,940.460,10.929,90521.570,940.270,5013,-10.95,940.270,-5802357.500,-16.832,3.20,0.0,0.0,0.0,3.957,-5.944
5089,2,5089,76,-9.876,-1.15,-9.963,53.253,14.934,44.805,0.284,0.467,0.116,-491.0,-9.992,0.287,-9.458,52.177,15.697,46.185,0.253,0.459,0.219,-491.0,10.930,90522.562,940.551,10.929,90520.796,940.850,5089,-9.963,940.850,-6564611.500,7.631,1.813,0.0,0.0,0.0,3.957,-5.866
5125,2,5125,36,-9.942,0.854,-9.781,53.22,15.39,45.434,0.300,0.453,0.13,-491.0,-9.827,0.617,-9.70,52.908,15.229,47.106,0.332,0.382,0.343,-491.0,10.924,90521.953,940.502,10.906,90525.320,939.928,5125,-9.781,939.928,-6920020.0,-25.614,5.318,0.0,0.0,0.0,3.957,-5.759
5167,2,5167,42,-9.972,0.802,-9.530,52.975,15.299,45.901,0.280,0.393,0.4,-491.0,-9.626,0.954,-8.962,52.806,15.945,46.653,0.117,0.76,0.59,-491.0,10.921,90523.156,940.472,10.906,90525.320,940.438,5167,-9.530,940.438,-7325558.0,12.144,1.732,0.0,0.0,0.0,3.957,-5.611
5209,2,5209,42,-9.779,0.885,-9.412,52.814,15.498,46.422,0.215,0.372,0.17,-491.0,-9.698,-1.119,-9.451,52.996,15.551,47.193,0.62,0.335,0.118,-491.0,10.916,90524.562,940.426,10.911,90529.843,940.644,5209,-9.412,940.644,-7723347.500,4.906,1.871,0.0,0.0,0.0,3.957,-5.541
5245,2,5245,36,-9.522,0.683,-9.86,52.677,15.624,46.924,0.172,0.251,0.67,-491.0,-8.470,0.437,-8.489,52.499,15.697,47.486,0.96,0.157,0.274,-491.0,10.911,90525.312,940.482,10.901,90525.320,940.548,5245,-9.86,940.548,-8056324.500,-2.678,2.87,0.0,0.0,0.0,3.957,-5.350
5287,2,5287,42,-9.326,0.941,-8.891,52.858,15.855,47.65,0.149,0.85,0.229,-491.0,-9.8,-1.579,-8.481,53.83,16.851,46.886,0.141,0.369,0.586,-491.0,10.905,90527.367,940.520,10.901,90531.46,941.43,5287,-8.891,941.43,-8433853.0,11.804,1.738,0.0,0.0,0.0,3.957,-5.235
5323,2,5323,36,-9.389,-1.46,-8.879,53.4,16.422,46.790,0.73,0.108,0.361,-491.0,-10.143,-1.141,-9.13,53.639,18.64,45.732,0.51,0.588,1.3,-491.0,10.905,90527.367,940.603,10.906,90525.320,940.341,5323,-8.879,940.341,-8753728.0,-19.509,3.411,0.0,0.0,0.0,3.957,-5.228
5366,2,5366,43,-9.347,-1.71,-8.957,53.422,17.103,46.644,0.117,0.151,0.407,-491.0,-9.418,-1.76,-9.350,54.896,19.351,45.922,0.337,0.290,0.292,-491.0,10.905,90527.179,940.520,10.906,90524.406,940.25,5366,-8.957,940.25,-9137221.0,-7.354,2.283,0.0,0.0,0.0,3.957,-5.273
5402,2,5402,36,-9.347,0.989,-9.49,53.829,18.50,46.179,0.116,0.288,0.444,-491.0,-9.698,0.710,-9.910,55.27,20.286,44.869,0.59,0.349,0.63,-491.0,10.903,90526.523,940.581,10.901,90526.523,940.946,5402,-9.49,940.946,-9461334.0,25.600,1.565,0.0,0.0,0.0,3.957,-5.328
5444,2,5444,42,-9.248,-1.302,-9.229,54.291,18.903,45.819,0.30,0.310,0.238,-491.0,-7.975,-2.2,-9.393,54.808,19.964,45.688,0.334,0.46,0.751,-491.0,10.902,90527.210,940.619,10.897,90528.781,940.740,5444,-9.229,940.740,-9845194.0,-4.906,2.172,0.0,0.0,0.0,3.957,-5.434
5480,2,5480,36,-9.521,-1.279,-9.581,54.741,19.526,45.515,0.7,0.221,0.187,-491.0,-10.372,-1.464,-10.240,55.334,19.964,45.366,0.28,0.75,0.330,-491.0,10.902,90526.546,940.413,10.901,90527.726,940.11,5480,-9.581,940.11,-10183805.0,-20.258,3.549,0.0,0.0,0.0,3.944,-5.641
5523,2,5523,43,-9.492,-1.319,-9.723,55.217,19.812,45.285,0.26,0.60,0.27,-491.0,-9.999,-1.342,-9.723,56.21,19.497,44.577,0.223,0.214,0.203,-491.0,10.901,90527.726,940.407,10.897,90531.187,940.314,5523,-9.723,940.314,-10598875.0,7.46,1.825,0.0,0.0,0.0,3.957,-5.725
5572,2,5572,49,-9.428,-1.384,-9.854,55.586,19.605,45.135,0.112,0.39,0.79,-491.0,-9.95,-1.399,-10.3,56.737,18.313,45.176,0.90,0.182,0.241,-491.0,10.899,90527.515,940.383,10.897,90523.343,939.902,5572,-9.854,939.902,-11078545.0,-8.409,2.337,0.0,0.0,0.0,3.963,-5.802
5613,2,5613,41,-9.599,-1.340,-9.733,56.235,19.307,45.121,0.133,0.24,0.112,-491.0,-10.552,0.495,-9.307,58.272,18.795,44.796,0.45,0.31,0.103,-491.0,10.894,90528.476,940.254,10.878,90531.328,940.301,5613,-9.733,940.301,-11480107.0,9.740,1.773,0.0,0.0,0.0,3.970,-5.731
5649,2,5649,36,-9.860,-1.127,-9.776,56.977,19.143,44.998,0.45,0.29,0.57,-491.0,-9.281,0.933,-9.609,58.520,19.146,45.74,0.103,0.73,0.99,-491.0,10.892,90526.929,940.229,10.888,90521.85,940.617,5649,-9.776,940.617,-11831303.0,8.768,1.791,0.0,0.0,0.0,3.970,-5.756
5694,2,5694,45,-9.909,-1.141,-9.403,57.898,19.11,44.887,0.21,0.2,0.44,-491.0,-10.616,-1.536,-8.374,59.938,19.307,44.811,0.148,0.85,0.262,-491.0,10.889,90526.757,940.348,10.888,90526.812,940.604,5694,-9.403,940.604,-12262868.0,0.282,2.8,0.0,0.0,0.0,3.970,-5.536
5730,2,5730,36,-9.899,-2.134,-9.731,58.634,19.87,44.712,0.5,0.0,0.69,-491.0,-9.949,-6.309,-11.360,59.704,19.877,43.700,0.144,0.229,0.329,-491.0,10.885,90526.359,940.285,10.874,90529.210,939.998,5730,-9.731,939.998,-12607293.0,-16.832,3.20,0.0,0.0,0.0,3.963,-5.729
5772,2,5772,42,-9.947,-2.295,-9.465,59.125,19.421,44.440,0.84,0.48,0.116,-491.0,-9.339,-2.203,-8.675,59.193,19.979,43.817,0.359,0.55,0.5,-491.0,10.883,90525.937,940.447,10.888,90521.226,940.714,5772,-9.465,940.714,-13010419.0,17.37,1.661,0.0,0.0,0.0,3.970,-5.573
5809,2,5809,37,-9.800,-2.611,-9.403,59.222,19.614,44.57,0.160,0.61,0.121,-491.0,-9.812,-2.74,-8.998,58.754,19.760,42.882,0.335,0.31,0.77,-491.0,10.882,90524.609,940.406,10.874,90524.687,940.95,5809,-9.403,940.95,-13359498.0,-16.718,3.6,0.0,0.0,0.0,3.963,-5.536
5851,2,5851,42,-9.860,-2.723,-9.541,59.380,19.760,43.460,0.153,0.40,0.98,-491.0,-9.583,-1.493,-10.298,59.310,19.877,42.92,0.66,0.28,0.16,-491.0,10.880,90525.984,940.302,10.878,90528.7,940.95,5851,-9.541,940.95,-13757348.0,0.0,2.0,0.0,0.0,0.0,3.970,-5.618
5887,2,5887,36,-9.590,-2.601,-9.771,59.345,19.842,42.771,0.111,0.8,0.23,-491.0,-9.267,0.926,-9.522,59.763,19.716,41.362,0.58,0.328,0.113,-491.0,10.878,90525.984,940.343,10.878,90526.812,940.810,5887,-9.771,940.810,-14104978.0,19.860,1.626,0.0,0.0,0.0,3.963,-5.753
5929,2,5929,42,-9.711,-1.603,-9.453,59.549,19.938,41.841,0.130,0.67,0.71,-491.0,-10.552,-1.320,-9.774,60.727,20.359,39.52,0.50,0.67,0.142,-491.0,10.878,90525.476,940.403,10.874,90526.664,940.301,5929,-9.453,940.301,-14508707.0,-12.118,2.571,0.0,0.0,0.0,3.963,-5.566
5965,2,5965,36,-9.787,-1.435,-9.623,59.848,19.894,40.827,0.20,0.10,0.55,-491.0,-9.719,-1.363,-9.522,60.684,19.760,38.745,0.394,0.341,0.74,-491.0,10.877,90527.289,940.340,10.878,90530.273,940.398,5965,-9.623,940.398,-14852099.0,2.692,1.925,0.0,0.0,0.0,4.21,-5.666
6008,2,6008,43,-9.703,-1.105,-9.735,61.370,19.210,40.17,0.109,0.21,0.120,-491.0,-9.396,0.423,-9.558,66.369,16.340,38.833,0.111,0.188,0.405,-491.0,10.878,90529.70,940.445,10.883,90533.593,940.617,6008,-9.735,940.617,-15268311.0,5.87,1.867,0.0,0.0,0.0,4.60,-5.732
6044,2,6044,36,-9.879,0.855,-9.555,62.940,18.456,39.321,0.172,0.88,0.152,-491.0,-10.459,0.244,-9.400,67.158,16.106,38.614,0.248,0.310,0.174,-491.0,10.878,90528.828,940.508,10.878,90526.812,940.411,6044,-9.555,940.411,-15615553.0,-5.723,2.207,0.0,0.0,0.0,4.86,-5.626
6113,2,6113,69,-9.973,0.986,-9.666,64.674,17.854,38.702,0.174,0.191,0.203,-491.0,-9.741,-1.579,-10.75,68.430,16.705,38.263,0.66,0.184,0.368,-491.0,10.879,90528.437,940.401,10.883,90524.835,940.276,6113,-9.666,940.276,-16278723.0,-1.963,2.62,0.0,0.0,0.0,4.99,-5.691
6149,2,6149,36,-9.896,0.910,-9.673,66.164,17.47,38.383,0.215,0.247,0.192,-491.0,-10.164,0.940,-9.810,68.181,16.325,37.459,0.256,0.211,0.89,-491.0,10.879,90529.828,940.423,10.874,90533.593,940.411,6149,-9.673,940.411,-16626844.0,3.763,1.898,0.0,0.0,0.0,4.105,-5.695
6191,2,6191,42,-9.880,0.735,-9.630,67.886,16.389,38.102,0.159,0.171,0.206,-491.0,-9.640,0.488,-9.307,69.292,16.471,37.342,0.112,0.38,0.5,-491.0,10.881,90529.796,940.406,10.888,90530.125,940.314,6191,-9.630,940.314,-17032232.0,-2.307,2.74,0.0,0.0,0.0,4.105,-5.670
6227,2,6227,36,-10.16,0.755,-9.499,68.474,16.539,37.804,0.122,0.112,0.91,-491.0,-10.78,0.524,-8.905,69.307,17.85,37.342,0.71,0.107,0.167,-491.0,10.884,90529.976,940.389,10.897,90534.507,940.533,6227,-9.499,940.533,-17376580.0,6.89,1.845,0.0,0.0,0.0,4.112,-5.593
6270,2,6270,43,-9.920,0.934,-9.540,68.892,16.746,37.415,0.41,0.44,0.10,-491.0,-9.978,-1.141,-9.601,69.248,17.144,36.670,0.156,0.27,0.334,-491.0,10.889,90530.578,940.455,10.901,90529.843,940.740,6270,-9.540,940.740,-17785940.0,4.816,1.873,0.0,0.0,0.0,4.112,-5.617
6306,2,6306,36,-9.731,0.839,-9.495,68.807,16.813,37.202,0.15,0.39,0.76,-491.0,-8.793,-1.105,-9.853,68.6,17.41,37.196,0.65,0.161,0.36,-491.0,10.894,90531.578,940.616,10.911,90529.843,941.83,6306,-9.495,941.83,-18128582.0,9.502,1.778,0.0,0.0,0.0,4.112,-5.590
6349,2,6349,43,-9.583,0.847,-9.466,68.743,16.875,37.439,0.19,0.35,0.87,-491.0,-9.425,0.976,-9.666,67.860,16.632,38.643,0.85,0.164,0.35,-491.0,10.901,90530.562,940.564,10.906,90528.492,940.148,6349,-9.466,940.148,-18536274.0,-21.739,3.875,0.0,0.0,0.0,4.112,-5.574
6385,2,6385,36,-9.663,-1.108,-9.540,68.655,16.889,37.971,0.21,0.57,0.95,-491.0,-10.42,-1.794,-9.673,68.854,16.544,40.2,0.315,0.149,0.47,-491.0,10.908,90528.640,940.637,10.924,90520.507,940.683,6385,-9.540,940.683,-18878400.0,14.858,1.691,0.0,0.0,0.0,4.112,-5.617
6428,2,6428,43,-9.484,-1.23,-9.653,68.851,16.822,38.743,0.85,0.124,0.6,-491.0,-9.181,0.100,-9.472,70.286,16.749,41.201,0.250,0.442,0.279,-491.0,10.914,90526.718,940.648,10.929,90524.890,940.586,6428,-9.653,940.586,-19291062.0,-2.242,2.72,0.0,0.0,0.0,4.112,-5.683
6464,2,6464,36,-9.276,0.960,-9.519,69.102,16.708,39.812,0.182,0.190,0.136,-491.0,-8.937,0.825,-8.934,70.505,16.574,42.19,0.324,0.358,0.380,-491.0,10.921,90526.148,940.642,10.934,90527.7,940.709,6464,-9.519,940.709,-19636186.0,3.412,1.907,0.0,0.0,0.0,4.112,-5.605
6506,2,6506,42,-9.514,0.781,-9.547,69.771,16.632,41.230,0.215,0.204,0.137,-491.0,-9.985,0.208,-9.989,71.353,16.661,44.285,0.101,0.94,0.42,-491.0,10.927,90524.671,940.586,10.943,90522.484,940.806,6506,-9.547,940.806,-20036598.0,2.307,1.935,0.0,0.0,0.0,4.112,-5.621
6542,2,6542,36,-9.512,0.656,-9.554,70.587,16.805,42.332,0.201,0.153,0.139,-491.0,-9.418,0.351,-9.702,71.938,17.494,44.153,0.14,0.87,0.41,-491.0,10.935,90523.203,940.660,10.947,90521.132,940.516,6542,-9.554,940.516,-20380428.0,-8.63,2.319,0.0,0.0,0.0,4.112,-5.625
6586,2,6586,44,-9.415,0.298,-9.577,71.312,17.24,43.139,0.135,0.181,0.171,-491.0,-9.554,0.7,-9.788,72.478,17.641,44.36,0.15,0.289,0.114,-491.0,10.943,90523.562,940.646,10.961,90522.335,940.613,6586,-9.577,940.613,-20801328.0,2.202,1.938,0.0,0.0,0.0,4.125,-5.639
6648,2,6648,62,-9.588,0.335,-9.693,71.777,17.161,43.598,0.96,0.102,0.90,-491.0,-10.49,0.287,-10.54,72.610,17.436,43.496,0.56,0.48,0.124,-491.0,10.949,90522.601,940.692,10.961,90520.78,940.819,6648,-9.693,940.819,-21398732.0,3.323,1.909,0.0,0.0,0.0,4.118,-5.707
6690,2,6690,42,-9.722,0.249,-9.884,72.60,17.377,43.756,0.46,0.59,0.3,-491.0,-9.604,0.394,-9.888,71.923,17.655,42.809,0.77,0.141,0.59,-491.0,10.955,90521.890,940.714,10.961,90523.398,940.819,6690,-9.884,940.819,-21809878.0,0.0,2.0,0.0,0.0,0.0,4.118,-5.820
6726,2,6726,36,-9.696,0.337,-9.919,72.11,17.456,43.349,0.30,0.87,0.10,-491.0,-9.856,0.646,-10.161,71.104,17.56,42.253,0.20,0.44,0.27,-491.0,10.958,90523.156,940.720,10.961,90528.835,940.832,6726,-9.919,940.832,-22166346.0,0.383,1.988,0.0,0.0,0.0,4.118,-5.840
6768,2,6768,42,-9.782,0.333,-9.955,71.821,17.413,43.101,0.37,0.100,0.28,-491.0,-9.848,0.330,-9.881,70.988,17.275,42.911,0.46,0.24,0.43,-491.0,10.963,90523.578,940.722,10.970,90523.250,940.529,6768,-9.955,940.529,-22583702.0,-7.213,2.276,0.0,0.0,0.0,4.118,-5.861
6804,2,6804,36,-9.883,0.449,-10.15,71.274,17.316,42.902,0.37,0.31,0.59,-491.0,-10.57,0.588,-10.89,69.745,17.158,43.42,0.14,0.53,0.41,-491.0,10.965,90524.398,940.689,10.970,90526.429,940.446,6804,-10.15,940.446,-22943168.0,-2.310,2.74,0.0,0.0,0.0,4.118,-5.897
6848,2,6848,44,-9.969,0.519,-9.946,70.257,17.132,42.987,0.30,0.0,0.94,-491.0,-10.480,0.638,-9.709,67.524,16.515,43.919,0.24,0.109,0.297,-491.0,10.968,90524.554,940.656,10.975,90520.843,940.652,6848,-9.946,940.652,-23382326.0,4.681,1.876,0.0,0.0,0.0,4.118,-5.856
6889,2,6889,41,-10.78,0.548,-9.969,68.871,16.731,43.469,0.17,0.87,0.158,-491.0,-10.150,0.538,-10.3,64.995,15.653,45.220,0.163,0.297,0.381,-491.0,10.971,90525.609,940.601,10.980,90528.687,940.543,6889,-9.969,940.543,-23790598.0,-2.673,2.87,0.0,0.0,0.0,4.118,-5.869
6925,2,6925,36,-9.972,0.559,-10.94,67.144,16.121,44.209,0.9,0.132,0.228,-491.0,-9.324,0.703,-10.786,62.467,14.1,45.951,0.58,0.177,0.376,-491.0,10.974,90524.226,940.587,10.975,90521.906,940.762,6925,-10.94,940.762,-24151744.0,6.89,1.845,0.0,0.0,0.0,4.118,-5.943
6970,2,6970,45,-10.36,0.792,-10.143,64.969,15.475,45.36,0.21,0.143,0.274,-491.0,-10.171,-1.493,-10.125,60.114,14.45,47.47,0.205,0.78,0.276,-491.0,10.976,90524.859,940.570,10.980,90526.429,940.446,6970,-10.143,940.446,-24607084.0,-7.13,2.266,0.0,0.0,0.0,4.118,-5.972
7006,2,7006,36,-9.544,-1.23,-10.46,62.794,14.805,46.36,0.192,0.59,0.343,-491.0,-7.594,-1.744,-9.609,58.871,13.811,48.41,0.835,0.366,0.385,-491.0,10.979,90524.382,940.592,10.984,90524.23,940.556,7006,-10.46,940.556,-24970504.0,3.44,1.916,0.0,0.0,0.0,4.118,-5.915
7048,2,7048,42,-11.545,0.562,-10.446,61.96,14.188,46.878,0.395,0.156,0.459,-491.0,-20.487,7.293,-11.705,59.32,13.431,48.129,-1.38,0.967,0.875,-491.0,10.981,90526.164,940.655,10.984,90529.750,940.968,7048,-10.446,940.968,-25400854.0,9.823,1.772,0.0,0.0,0.0,4.125,-6.150
7084,2,7084,36,-11.507,0.245,-10.806,59.353,13.504,48.143,0.528,0.414,0.629,-491.0,-9.956,-2.124,-11.805,56.284,12.233,51.549,0.503,0.994,1.234,-491.0,10.981,90524.773,940.641,10.984,90521.757,940.472,7084,-10.806,940.472,-25783396.0,-13.787,2.705,0.0,0.0,0.0,4.125,-6.362
7127,2,7127,43,-11.406,0.20,-10.572,58.330,13.306,48.874,0.499,0.503,0.608,-491.0,-8.822,-1.830,-9.616,57.351,13.7,49.605,0.85,0.269,0.270,-491.0,10.984,90526.984,940.624,10.989,90532.921,940.678,7127,-10.572,940.678,-26243038.0,4.790,1.874,0.0,0.0,0.0,4.118,-6.225
7189,2,7189,62,-11.179,0.111,-10.743,58.61,13.133,48.646,0.468,0.802,0.579,-491.0,-9.37,-2.153,-10.980,58.769,13.183,45.907,0.50,-1.415,0.131,-491.0,10.987,90526.976,940.583,10.993,90526.429,940.240,7189,-10.743,940.240,-26903820.0,-7.72,2.269,0.0,0.0,0.0,4.125,-6.325
7231,2,7231,42,-12.9,0.169,-11.264,58.181,13.124,47.743,0.293,-1.131,0.540,-491.0,-11.743,-2.31,-12.214,59.470,13.767,43.525,0.41,-2.9,0.191,-491.0,10.988,90526.546,940.440,10.989,90521.906,939.840,7231,-11.264,939.840,-27365978.0,-9.508,2.399,0.0,0.0,0.0,4.125,-6.632
7267,2,7267,36,-10.272,-2.98,-11.359,58.175,13.247,46.167,0.1,-1.140,0.371,-491.0,-11.801,-2.354,-12.178,59.3,14.45,40.251,0.435,-1.16,0.31,-491.0,10.988,90526.765,940.357,10.984,90530.804,940.556,7267,-11.359,940.556,-27773200.0,19.877,1.626,0.0,0.0,0.0,4.125,-6.688
7309,2,7309,42,-10.250,-2.130,-11.506,58.453,13.478,43.460,0.103,0.925,0.103,-491.0,-9.848,-2.282,-12.544,57.673,13.387,38.15,0.8,0.84,0.104,-491.0,10.989,90528.546,940.478,10.989,90530.664,941.78,7309,-11.506,941.78,-28253388.0,12.433,1.728,0.0,0.0,0.0,4.125,-6.775
7345,2,7345,36,-10.216,-2.100,-11.854,58.146,13.156,40.412,0.98,0.897,0.24,-484.600,-8.650,-1.679,-11.353,55.817,11.400,34.361,0.58,0.131,0.369,-459.0,10.991,90527.398,940.498,10.998,90527.195,940.775,7345,-11.854,940.775,-28673894.0,-8.416,2.337,0.0,0.0,0.0,4.125,-6.979
7388,2,7388,43,-10.968,-2.407,-12.180,56.115,12.104,37.261,0.11,0.644,0.5,-478.200,-12.799,-3.689,-12.609,48.611,7.921,30.152,0.599,0.149,0.277,-459.0,10.992,90527.578,940.503,10.998,90527.343,940.266,7388,-12.180,940.266,-29190642.0,-11.850,2.551,0.0,0.0,0.0,4.125,-7.171
7424,2,7424,36,-11.66,-2.671,-12.254,53.361,10.546,34.19,0.66,0.321,0.32,-478.200,-12.232,-3.352,-12.588,45.703,5.977,27.316,0.235,2.818,0.5,-491.0,10.993,90528.671,940.649,10.998,90527.343,940.569,7424,-12.254,940.569,-29630478.0,8.416,1.798,0.0,0.0,0.0,4.118,-7.215
7466,2,7466,42,-10.494,-2.701,-12.92,51.58,8.664,31.487,0.135,0.657,0.388,-471.799,-8.944,-2.505,-11.367,47.486,4.633,27.594,0.91,0.666,-1.748,-459.0,10.996,90528.640,940.629,10.998,90530.664,940.459,7466,-12.92,940.459,-30141780.0,-2.609,2.84,0.0,0.0,0.0,4.118,-7.120
7502,2,7502,36,-9.735,-2.278,-11.425,49.231,6.430,29.535,0.40,0.642,0.760,-471.799,-6.51,0.165,-9.207,48.538,2.221,28.251,0.887,0.8,-1.968,-491.0,10.997,90527.523,940.404,10.993,90525.78,939.950,7502,-11.425,939.950,-30565102.0,-14.138,2.736,0.0,0.0,0.0,4.125,-6.727
7545,2,7545,43,-10.196,-2.203,-11.219,48.120,4.305,28.108,0.89,0.588,0.844,-478.200,-10.954,-1.306,-10.326,50.263,0.774,27.228,0.591,0.401,0.785,-491.0,10.996,90527.765,940.321,10.993,90528.398,940.363,7545,-11.219,940.363,-31051970.0,9.595,1.776,0.0,0.0,0.0,4.125,-6.606
7582,2,7582,37,-8.986,-1.102,-10.487,48.468,2.715,27.781,0.7,0.660,0.937,-484.600,-6.747,1.816,-8.948,50.350,0.29,28.515,0.190,0.210,0.191,-491.0,10.995,90528.398,940.321,10.993,90530.515,940.266,7582,-10.487,940.266,-31453558.0,-2.621,2.85,0.0,0.0,0.0,4.125,-6.175
7625,2,7625,43,-9.148,0.200,-10.56,49.90,2.63,27.807,0.297,0.121,0.793,-478.200,-13.43,1.155,-10.434,48.816,2.718,27.448,-1.685,0.125,0.727,-459.0,10.995,90528.820,940.384,10.998,90529.460,940.885,7625,-10.56,940.885,-31895266.0,14.400,1.698,0.0,0.0,0.0,4.125,-5.921
7661,2,7661,36,-9.576,0.501,-10.260,49.529,1.797,27.357,0.644,0.373,0.321,-484.600,-11.83,1.4,-12.387,49.678,3.303,25.343,-1.644,1.924,0.610,-491.0,10.995,90527.15,940.428,10.998,90521.617,940.678,7661,-10.260,940.678,-32260986.0,-5.739,2.207,0.0,0.0,0.0,4.125,-6.41
7729,2,7729,68,-10.345,0.234,-10.193,52.5,2.721,27.781,0.740,0.624,0.64,-484.600,-9.899,-1.500,-8.869,60.917,6.840,30.371,0.408,1.262,0.40,-491.0,10.997,90528.367,940.527,11.3,90531.867,940.446,7729,-10.193,940.446,-32956426.0,-3.409,2.113,0.0,0.0,0.0,4.125,-6.1
7765,2,7765,36,-10.243,0.435,-10.120,54.244,4.375,28.699,0.465,1.26,0.276,-484.600,-10.444,0.301,-9.960,61.458,9.47,31.818,0.786,1.611,0.277,-491.0,10.995,90527.921,940.486,10.984,90526.140,940.156,7765,-10.120,940.156,-33322068.0,-8.65,2.319,0.0,0.0,0.0,4.125,-5.958
7808,2,7808,43,-10.708,0.271,-9.811,56.439,6.489,29.795,0.289,1.304,0.316,-484.600,-9.73,-1.715,-7.405,61.327,10.537,33.995,0.689,1.597,0.4,-491.0,10.996,90528.164,940.591,10.998,90531.718,940.788,7808,-9.811,940.788,-33750596.0,14.693,1.694,0.0,0.0,0.0,4.125,-5.776
7849,2,7849,41,-10.163,0.416,-8.555,58.389,8.67,31.531,0.251,1.587,0.45,-491.0,-10.315,0.430,-4.153,58.564,10.610,36.129,1.15,1.541,-1.81,-491.0,10.998,90526.601,940.450,11.7,90521.617,940.182,7849,-8.555,940.182,-34127112.0,-14.764,2.795,0.0,0.0,0.0,4.125,-5.37
7885,2,7885,36,-10.994,-1.131,-7.320,59.900,9.204,34.150,0.733,1.918,0.215,-491.0,-15.239,-2.569,-6.213,57.234,8.988,38.439,0.767,3.582,0.236,-491.0,11.1,90527.15,940.310,11.12,90523.734,939.976,7885,-7.320,939.976,-34412876.0,-5.723,2.207,0.0,0.0,0.0,4.125,-4.310
7928,2,7928,43,-9.751,-1.326,-6.272,57.968,9.228,37.649,0.572,2.372,0.54,-491.0,-3.682,-2.476,-3.629,51.256,6.957,47.866,0.393,3.531,0.764,-491.0,11.3,90524.250,940.381,11.12,90518.7,940.802,7928,-6.272,940.802,-34705124.0,19.203,1.634,0.0,0.0,0.0,4.125,-3.693
7965,2,7965,37,-8.780,-1.536,-5.0,55.586,8.643,41.712,0.369,1.981,0.56,-491.0,-5.592,-1.349,-3.600,49.546,6.123,52.133,0.228,0.343,0.829,-491.0,11.7,90523.734,940.634,11.7,90523.585,941.420,7965,-5.0,941.420,-34913672.0,16.705,1.666,0.0,0.0,0.0,4.125,-2.944
8006,2,8006,41,-8.84,-1.340,-4.596,52.496,7.518,45.343,0.215,1.869,0.231,-491.0,-5.592,0.739,-5.388,45.878,4.910,52.148,0.81,1.36,0.880,-491.0,11.11,90520.515,940.744,11.16,90515.601,941.337,8006,-4.596,941.337,-35110420.0,-2.29,2.64,0.0,0.0,0.0,4.118,-2.706
8042,2,8042,36,-6.710,-1.560,-4.785,49.362,6.308,48.857,0.21,1.657,0.617,-491.0,-3.445,0.667,-5.93,42.896,4.560,53.697,0.171,0.482,0.848,-491.0,11.14,90519.765,941.118,11.21,90517.859,942.52,8042,-4.785,942.52,-35279296.0,19.863,1.626,0.0,0.0,0.0,4.125,-2.817
8086,2,8086,44,-4.984,-1.257,-4.91,45.419,5.19,52.183,0.211,0.806,0.694,-491.0,-6.611,-1.55,-2.746,37.518,2.543,55.71,0.183,0.672,0.147,-491.0,11.16,90518.578,941.450,11.26,90517.859,941.640,8086,-4.91,941.640,-35474584.0,-9.364,2.390,0.0,0.0,0.0,4.125,-2.409
8122,2,8122,36,-5.683,0.814,-4.519,42.180,3.703,54.150,0.89,0.42,0.618,-491.0,-7.178,0.258,-5.768,35.62,0.380,57.702,0.216,0.289,0.387,-491.0,11.17,90517.203,941.453,11.16,90511.78,940.815,8122,-4.519,940.815,-35629584.0,-22.923,4.202,0.0,0.0,0.0,4.125,-2.661
8164,2,8164,42,-6.58,0.947,-4.403,39.494,2.779,55.287,0.123,0.78,0.533,-491.0,-7.465,-2.17,-3.19,36.115,1.505,57.819,0.396,0.946,0.404,-491.0,11.20,90517.195,941.456,11.21,90523.585,941.434,8164,-4.403,941.434,-35816960.0,14.742,1.693,0.0,0.0,0.0,4.125,-2.592
8211,2,8211,47,-7.422,-1.227,-4.49,38.935,2.218,57.673,0.240,0.595,0.617,-491.0,-12.411,-2.139,-3.622,43.86,2.104,64.74,0.668,-1.550,1.300,-491.0,11.21,90519.226,941.327,11.21,90525.703,940.692,8211,-4.49,940.692,-36015608.0,-15.788,2.899,0.0,0.0,0.0,4.125,-2.384
8254,2,8254,43,-8.219,-1.587,-3.899,39.79,1.967,60.55,0.164,0.841,0.696,-491.0,-7.429,-2.469,-4.340,43.612,3.303,65.609,0.211,0.746,1.245,-491.0,11.21,90521.515,940.994,11.21,90529.312,940.390,8254,-3.899,940.390,-36186516.0,-7.33,2.267,0.0,0.0,0.0,4.125,-2.295
8290,2,8290,36,-8.260,-1.925,-4.480,40.584,2.353,62.84,0.83,0.890,0.911,-491.0,-6.819,-2.742,-5.653,45.45,4.472,65.214,0.221,0.920,1.221,-491.0,11.18,90523.562,940.664,11.12,90528.109,939.989,8290,-4.480,939.989,-36337356.0,-11.123,2.500,0.0,0.0,0.0,4.125,-2.638
8332,2,8332,42,-8.572,-2.565,-4.335,42.683,3.376,63.481,0.147,0.883,0.964,-484.600,-8.736,-3.460,-5.43,45.556,5.495,64.688,0.104,0.251,0.649,-459.0,11.20,90526.515,940.521,11.26,90525.851,940.99,8332,-4.335,940.99,-36522500.0,2.623,1.927,0.0,0.0,0.0,4.125,-2.552
8368,2,8368,36,-8.31,-2.320,-4.918,44.545,4.294,64.869,0.9,0.680,0.848,-484.600,-4.759,0.789,-5.933,45.425,6.94,64.761,0.292,0.68,0.174,-491.0,11.20,90528.78,940.295,11.21,90531.429,940.306,8368,-4.918,940.306,-36689076.0,5.737,1.853,0.0,0.0,0.0,4.125,-2.896
8411,2,8411,43,-7.1,-2.656,-5.593,45.200,5.425,64.712,0.235,0.516,0.675,-478.200,-7.264,-3.818,-6.996,46.360,7.760,63.285,0.556,0.733,0.436,-459.0,11.19,90528.562,940.259,11.16,90528.109,940.512,8411,-5.593,940.512,-36915084.0,4.791,1.874,0.0,0.0,0.0,4.125,-3.293
8447,2,8447,36,-6.760,-3.78,-6.301,45.805,6.536,64.212,0.179,0.523,0.538,-478.200,-6.223,-4.579,-7.878,46.638,8.857,63.110,0.70,0.780,0.559,-491.0,11.18,90528.750,940.262,11.16,90530.226,940.402,8447,-6.301,940.402,-37129184.0,-3.44,2.100,0.0,0.0,0.0,4.125,-3.710
8489,2,8489,42,-6.803,-2.954,-6.193,46.910,7.585,63.510,0.203,0.618,0.238,-478.200,-7.34,-2.124,-5.115,50.570,9.719,61.707,0.344,-1.395,0.278,-491.0,11.20,90529.195,940.386,11.21,90530.375,940.609,8489,-6.193,940.609,-37391572.0,4.917,1.871,0.0,0.0,0.0,4.125,-3.646
8525,2,8525,36,-7.57,-3.109,-6.308,48.547,8.880,62.882,0.197,0.673,0.160,-484.600,-10.6,-4.235,-5.617,53.741,11.970,61.546,0.134,0.524,0.260,-491.0,11.20,90530.976,940.383,11.26,90534.750,940.87,8525,-6.308,940.87,-37616604.0,-14.506,2.770,0.0,0.0,0.0,4.125,-3.714
8568,2,8568,43,-7.643,-3.682,-6.654,50.143,10.181,62.244,0.156,0.681,0.216,-484.600,-7.688,-3.653,-7.663,53.405,12.598,61.575,0.88,0.27,0.106,-491.0,11.21,90529.859,940.400,11.26,90525.851,940.390,8568,-6.654,940.390,-37895300.0,7.46,1.825,0.0,0.0,0.0,4.125,-3.918
8605,2,8605,37,-7.993,-3.678,-7.72,51.607,11.245,61.786,0.100,0.539,0.106,-484.600,-9.16,-3.797,-9.84,53.683,13.80,60.990,0.274,0.26,0.114,-459.0,11.21,90529.617,940.356,11.16,90526.906,940.292,8605,-7.72,940.292,-38149240.0,-2.634,2.85,0.0,0.0,0.0,4.125,-4.164
8647,2,8647,42,-8.704,-3.778,-6.838,53.177,12.160,61.265,0.94,0.251,0.99,-484.600,-9.777,-5.82,-6.708,54.486,13.431,60.508,0.100,0.661,0.472,-491.0,11.19,90528.328,940.414,11.7,90523.734,940.692,8647,-6.838,940.692,-38441356.0,9.521,1.777,0.0,0.0,0.0,4.125,-4.26
8683,2,8683,36,-8.954,-4.107,-7.296,53.878,12.744,61.151,0.13,0.59,0.193,-484.600,-8.283,-3.768,-7.405,54.77,12.642,61.137,0.193,0.160,0.747,-491.0,11.15,90529.257,940.367,11.3,90535.39,940.375,8683,-7.296,940.375,-38695772.0,-8.799,2.358,0.0,0.0,0.0,4.125,-4.295
8751,2,8751,68,-9.50,-4.269,-7.547,54.159,12.607,60.888,0.13,0.137,0.270,-478.200,-10.487,-5.46,-6.874,55.144,11.283,60.230,0.133,0.137,0.123,-459.0,11.11,90527.375,940.395,11.3,90525.367,940.227,8751,-7.547,940.227,-39200448.0,-2.178,2.69,0.0,0.0,0.0,4.125,-4.443
8787,2,8787,36,-9.254,-4.121,-7.723,54.598,12.391,60.616,0.13,0.25,0.270,-478.200,-8.707,-2.914,-8.546,55.597,11.517,60.216,0.86,0.531,0.106,-491.0,10.999,90528.429,940.404,10.966,90531.93,940.433,8787,-7.723,940.433,-39475332.0,5.722,1.853,0.0,0.0,0.0,4.125,-4.547
8830,2,8830,43,-9.274,-4.119,-7.617,54.831,12.98,60.450,0.99,0.41,0.241,-484.600,-9.116,-3.783,-8.553,54.852,11.619,60.157,0.156,0.52,0.29,-491.0,10.991,90528.390,940.347,10.975,90526.718,940.7,8830,-7.617,940.7,-39805176.0,-9.914,2.423,0.0,0.0,0.0,4.125,-4.485
8866,2,8866,36,-8.934,-3.625,-7.531,54.779,11.464,60.488,0.143,0.26,0.217,-484.600,-8.75,-2.612,-6.278,54.223,10.260,60.698,0.320,0.321,0.352,-491.0,10.980,90529.890,940.146,10.952,90531.242,939.690,8866,-7.531,939.690,-40077864.0,-8.783,2.357,0.0,0.0,0.0,4.125,-4.434
8909,2,8909,43,-8.849,-3.227,-7.499,54.904,10.941,60.444,0.55,0.168,0.153,-484.600,-7.860,-1.780,-7.247,54.706,10.26,60.917,0.248,0.549,0.425,-491.0,10.970,90528.257,940.48,10.957,90526.859,939.884,8909,-7.499,939.884,-40401040.0,4.496,1.881,0.0,0.0,0.0,4.125,-4.415
8945,2,8945,36,-8.667,-2.811,-7.577,55.74,10.722,60.350,0.31,0.227,0.241,-491.0,-9.576,-2.964,-7.261,55.992,10.187,59.763,0.299,0.431,0.562,-491.0,10.959,90529.703,939.958,10.947,90532.585,939.774,8945,-7.577,939.774,-40672436.0,-3.44,2.100,0.0,0.0,0.0,4.125,-4.461
8988,2,8988,43,-8.513,-2.645,-7.342,55.378,10.356,60.29,0.106,0.67,0.433,-491.0,-7.939,-2.88,-7.369,57.117,9.690,58.608,0.459,0.270,0.856,-491.0,10.956,90528.882,939.925,10.947,90527.7,940.270,8988,-7.342,940.270,-40993208.0,11.529,1.742,0.0,0.0,0.0,4.125,-4.322
9024,2,9024,36,-8.371,-2.551,-7.76,55.974,9.918,59.558,0.183,0.75,0.461,-491.0,-8.405,-3.309,-7.225,57.833,9.427,57.804,0.230,0.13,0.110,-491.0,10.947,90529.398,939.881,10.934,90529.265,939.787,9024,-7.76,939.787,-41252740.0,-13.403,2.672,0.0,0.0,0.0,4.125,-4.166
9066,2,9066,42,-8.928,-1.966,-6.779,56.693,9.763,58.763,0.141,0.48,0.416,-491.0,-10.861,0.308,-4.792,57.819,9.485,56.723,0.529,0.454,0.128,-491.0,10.946,90529.476,939.857,10.947,90531.671,939.568,9066,-6.779,939.568,-41543708.0,-5.219,2.185,0.0,0.0,0.0,4.125,-3.991
9103,2,9103,37,-9.400,-2.41,-6.391,57.529,9.356,57.886,0.30,0.56,0.432,-491.0,-10.222,-2.153,-5.309,58.886,7.994,56.533,0.613,0.587,0.503,-491.0,10.943,90529.296,940.19,10.938,90525.945,940.696,9103,-6.391,940.696,-41787368.0,30.489,1.522,0.0,0.0,0.0,4.131,-3.763
9145,2,9145,42,-9.349,-1.821,-6.487,58.289,8.933,57.111,0.66,0.118,0.330,-484.600,-9.317,-1.866,-7.742,59.792,8.67,55.890,0.121,0.743,0.55,-459.0,10.940,90529.773,939.976,10.934,90534.992,939.556,9145,-6.487,939.556,-42057836.0,-27.162,6.401,0.0,0.0,0.0,4.118,-3.820
9186,2,9186,41,-9.870,-2.50,-6.826,58.915,8.608,56.281,0.168,0.263,0.86,-484.600,-10.545,-3.230,-9.63,60.245,8.67,54.457,0.51,0.456,0.367,-491.0,10.936,90529.609,940.14,10.929,90526.234,940.464,9186,-6.826,940.464,-42330780.0,22.154,1.600,0.0,0.0,0.0,4.125,-4.19
9250,2,9250,64,-10.100,-1.912,-7.179,59.362,8.389,55.390,0.229,0.324,0.34,-478.200,-9.554,-2.620,-8.991,60.70,8.330,53.346,0.77,0.292,0.145,-459.0,10.934,90530.421,940.37,10.920,90533.304,939.902,9250,-7.179,939.902,-42778988.0,-8.778,2.357,0.0,0.0,0.0,4.125,-4.227
9291,2,9291,41,-9.604,-2.414,-7.953,59.847,8.199,54.706,0.118,0.456,0.9,-471.799,-8.384,-2.203,-8.661,60.245,8.535,53.303,0.25,0.203,0.94,-459.0,10.923,90530.757,940.167,10.897,90533.304,940.218,9291,-7.953,940.218,-43089224.0,7.697,1.812,0.0,0.0,0.0,4.125,-4.683
9327,2,9327,36,-9.409,-2.400,-8.459,60.175,8.363,53.995,0.2,0.349,0.114,-465.399,-9.245,-2.81,-7.835,60.523,8.813,52.981,0.32,0.54,0.22,-459.0,10.914,90531.812,940.93,10.892,90531.187,940.328,9327,-8.459,940.328,-43384652.0,3.60,1.915,0.0,0.0,0.0,4.125,-4.980
9370,2,9370,43,-9.342,-2.361,-8.523,60.359,8.529,53.399,0.15,0.222,0.84,-471.799,-8.980,-1.672,-8.65,60.713,8.900,52.908,0.212,0.103,0.209,-491.0,10.907,90531.265,940.308,10.897,90532.250,940.630,9370,-8.523,940.630,-43749780.0,7.33,1.825,0.0,0.0,0.0,4.125,-5.18
9406,2,9406,36,-9.343,-1.767,-9.545,60.605,8.757,53.107,0.74,0.176,0.8,-471.799,-10.552,0.258,-14.174,61.473,9.207,52.996,0.245,0.227,0.95,-491.0,10.900,90531.343,940.196,10.892,90526.664,939.902,9406,-9.545,939.902,-44075032.0,-20.228,3.543,0.0,0.0,0.0,4.125,-5.620
9448,2,9448,42,-9.535,-1.764,-9.462,60.874,8.868,52.876,0.37,0.106,0.68,-478.200,-10.516,-2.605,-8.575,61.414,8.886,52.192,0.261,0.54,0.152,-491.0,10.894,90531.640,940.215,10.892,90534.796,939.998,9448,-9.462,939.998,-44474208.0,2.294,1.935,0.0,0.0,0.0,4.125,-5.571
9484,2,9484,36,-9.866,-1.806,-9.363,61.172,8.798,52.820,0.31,0.46,0.97,-478.200,-10.35,-2.411,-8.166,61.736,8.184,53.25,0.4,0.99,0.51,-459.0,10.892,90531.7,940.149,10.888,90530.125,939.889,9484,-9.363,939.889,-44813076.0,-3.44,2.100,0.0,0.0,0.0,4.125,-5.513
9528,2,9528,44,-9.900,-1.942,-9.630,61.414,8.769,52.709,0.67,0.108,0.74,-484.600,-9.418,-2.763,-9.171,61.736,8.667,52.426,0.145,0.364,0.138,-491.0,10.890,90530.609,940.122,10.883,90529.210,940.192,9528,-9.630,940.192,-45230944.0,6.885,1.828,0.0,0.0,0.0,4.125,-5.670
9564,2,9564,36,-10.265,-2.189,-9.795,61.762,8.807,52.361,0.0,0.94,0.12,-478.200,-10.803,-2.907,-8.891,62.452,9.90,51.169,0.126,0.37,0.96,-459.0,10.887,90531.117,939.971,10.878,90534.796,939.876,9564,-9.795,939.876,-45580616.0,-8.767,2.356,0.0,0.0,0.0,4.125,-5.767
9606,2,9606,42,-10.11,-2.564,-8.598,61.929,8.760,52.46,0.68,0.16,0.5,-478.200,-9.281,-2.132,-8.187,62.306,8.973,51.417,0.95,0.163,0.59,-491.0,10.882,90532.328,939.986,10.869,90532.679,939.973,9606,-8.598,939.973,-45966888.0,2.294,1.935,0.0,0.0,0.0,4.125,-5.62
9643,2,9643,37,-9.619,-2.396,-8.572,62.72,8.719,51.970,0.7,0.45,0.0,-478.200,-8.556,-1.765,-8.446,62.130,8.681,51.812,0.118,0.87,0.120,-491.0,10.877,90532.593,939.958,10.865,90536.140,939.863,9643,-8.572,939.863,-46284548.0,-2.947,2.97,0.0,0.0,0.0,4.125,-5.47
9686,2,9686,43,-9.491,-2.361,-8.660,62.198,8.903,51.613,0.41,0.87,0.5,-478.200,-9.396,-2.239,-8.604,62.364,9.105,51.242,0.167,0.111,0.26,-459.0,10.872,90532.15,939.932,10.865,90527.242,939.754,9686,-8.660,939.754,-46655044.0,-2.549,2.82,0.0,0.0,0.0,4.125,-5.99
9748,2,9748,62,-9.291,-2.357,-8.611,62.332,9.52,51.397,0.11,0.69,0.11,-478.200,-8.420,-2.742,-8.927,62.408,9.412,51.344,0.6,0.420,0.50,-491.0,10.866,90533.39,939.861,10.855,90534.304,939.837,9748,-8.611,939.837,-47190452.0,1.341,1.961,0.0,0.0,0.0,4.125,-5.70
9790,2,9790,42,-8.876,-2.268,-8.517,62.256,9.134,51.642,0.0,0.103,0.30,-484.600,-8.729,-2.462,-8.424,62.72,9.500,52.396,0.179,0.133,0.1,-491.0,10.859,90532.484,939.911,10.842,90532.46,940.127,9790,-8.517,940.127,-47550164.0,6.911,1.828,0.0,0.0,0.0,4.118,-5.15
9826,2,9826,36,-9.77,-2.341,-8.509,62.265,9.257,51.835,0.7,0.92,0.30,-484.600,-10.286,-2.498,-8.144,62.350,9.587,52.382,0.135,0.109,0.58,-491.0,10.852,90531.914,939.925,10.832,90529.789,940.42,9826,-8.509,940.42,-47856652.0,-2.356,2.76,0.0,0.0,0.0,4.125,-5.10
9868,2,9868,42,-9.155,-2.532,-8.506,62.212,9.400,51.952,0.32,0.146,0.33,-484.600,-8.944,-2.720,-8.431,61.867,9.397,52.396,0.7,0.182,0.132,-491.0,10.847,90529.945,940.2,10.842,90526.320,940.250,9868,-8.506,940.250,-48213980.0,4.932,1.871,0.0,0.0,0.0,4.125,-5.8
9904,2,9904,36,-9.132,-2.638,-8.453,62.142,9.298,52.376,0.47,0.182,0.64,-491.0,-9.281,-2.770,-8.338,62.14,8.593,53.361,0.92,0.65,0.181,-491.0,10.843,90532.687,940.41,10.842,90540.945,939.947,9904,-8.453,939.947,-48519252.0,-8.416,2.337,0.0,0.0,0.0,4.125,-4.977
9947,2,9947,43,-9.353,-2.585,-8.411,61.987,9.298,52.627,0.30,0.60,0.145,-491.0,-9.525,-2.476,-8.718,61.634,9.412,52.601,0.381,0.189,0.357,-491.0,10.842,90531.710,940.186,10.851,90529.500,940.565,9947,-8.411,940.565,-48881848.0,14.385,1.698,0.0,0.0,0.0,4.125,-4.952
9983,2,9983,36,-9.204,-2.459,-8.573,62.312,9.301,52.613,0.215,0.60,0.221,-491.0,-7.982,-1.830,-9.235,63.694,9.514,52.323,0.744,0.472,0.379,-491.0,10.843,90531.656,940.150,10.846,90531.757,939.947,9983,-8.573,939.947,-49187588.0,-17.183,3.63,0.0,0.0,0.0,4.125,-5.48
10025,2,10025,42,-9.60,-2.455,-9.156,62.738,9.339,52.300,0.445,0.243,0.234,-484.600,-9.568,-2.476,-11.59,64.484,9.777,50.818,1.15,0.805,0.120,-459.0,10.847,90533.414,940.153,10.855,90538.546,940.56,10025,-9.156,940.56,-49559932.0,2.609,1.927,0.0,0.0,0.0,4.125,-5.391
10061,2,10061,36,-9.412,-2.436,-9.139,63.308,9.581,51.628,0.467,0.221,0.243,-484.600,-10.703,-2.627,-8.345,64.717,10.610,49.35,0.105,0.291,0.181,-491.0,10.851,90533.593,940.117,10.860,90527.242,940.70,10061,-9.139,940.70,-49889264.0,0.367,1.989,0.0,0.0,0.0,4.125,-5.381
10104,2,10104,43,-9.584,-2.57,-8.997,63.887,9.912,50.745,0.521,0.208,0.299,-484.600,-10.143,0.875,-7.627,64.907,10.245,48.947,0.359,0.134,0.459,-491.0,10.854,90531.976,940.119,10.855,90532.820,939.959,10104,-8.997,939.959,-50279208.0,-2.562,2.83,0.0,0.0,0.0,4.125,-5.297
10140,2,10140,36,-9.726,-1.833,-9.116,64.852,10.46,49.941,0.558,0.230,0.269,-484.600,-10.236,-1.356,-9.314,66.457,10.84,48.582,0.567,0.299,0.206,-491.0,10.855,90532.851,939.979,10.860,90533.875,939.863,10140,-9.116,939.863,-50605260.0,-2.663,2.86,0.0,0.0,0.0,4.125,-5.367
10182,2,10182,42,-10.31,-1.610,-9.46,65.261,10.228,49.128,0.461,0.112,0.225,-484.600,-9.504,0.717,-8.883,65.741,10.420,48.260,0.260,0.117,0.160,-491.0,10.860,90534.835,939.984,10.869,90541.718,939.973,10182,-9.46,939.973,-50986680.0,2.596,1.927,0.0,0.0,0.0,4.125,-5.326
10219,2,10219,37,-9.933,-1.256,-8.612,65.524,10.453,48.707,0.311,0.79,0.218,-491.0,-9.80,0.703,-8.891,65.799,10.903,48.713,0.266,0.151,0.85,-491.0,10.861,90533.453,939.907,10.860,90531.617,939.670,10219,-8.612,939.670,-51313368.0,-8.186,2.325,0.0,0.0,0.0,4.125,-5.71
10288,2,10288,69,-9.754,-1.73,-8.882,65.898,10.485,48.491,0.346,0.5,0.221,-484.600,-9.805,-1.715,-9.695,66.588,10.771,47.953,0.280,0.129,0.196,-459.0,10.862,90535.78,939.860,10.865,90535.367,939.837,10288,-8.882,939.837,-51916952.0,2.426,1.932,0.0,0.0,0.0,4.118,-5.230
10324,2,10324,36,-9.712,-1.279,-9.324,66.106,10.511,48.178,0.335,0.68,0.183,-484.600,-9.934,-1.902,-9.838,65.945,10.377,47.383,0.304,0.182,0.268,-491.0,10.859,90535.585,939.960,10.842,90535.367,940.456,10324,-9.324,940.456,-52244684.0,17.183,1.659,0.0,0.0,0.0,4.125,-5.490
10368,2,10368,44,-9.588,-1.309,-9.418,66.211,10.479,47.673,0.304,0.74,0.208,-484.600,-9.619,-1.507,-9.781,66.983,9.923,46.53,0.412,0.326,0.331,-491.0,10.856,90535.437,940.78,10.846,90533.109,940.456,10368,-9.418,940.456,-52657024.0,0.0,2.0,0.0,0.0,0.0,4.125,-5.545
10404,2,10404,36,-9.485,-1.474,-9.623,66.574,10.359,47.161,0.311,0.212,0.226,-484.600,-8.987,-1.543,-9.910,67.553,9.821,45.703,0.294,0.575,0.249,-491.0,10.851,90533.476,940.175,10.842,90531.906,940.456,10404,-9.623,940.456,-52999768.0,0.0,2.0,0.0,0.0,0.0,4.125,-5.666
10446,2,10446,42,-9.755,-1.592,-9.720,67.123,10.102,46.281,0.262,0.297,0.267,-484.600,-10.430,-1.292,-9.379,68.547,9.617,44.314,0.19,0.273,0.292,-491.0,10.849,90533.328,940.211,10.851,90530.843,939.850,10446,-9.720,939.850,-53406000.0,-14.426,2.762,0.0,0.0,0.0,4.125,-5.723
10488,2,10488,42,-9.825,-1.490,-9.662,67.503,9.836,45.536,0.253,0.282,0.263,-491.0,-10.157,-1.205,-9.400,68.488,9.441,44.226,0.234,0.56,0.174,-491.0,10.845,90532.601,940.233,10.846,90531.757,939.947,10488,-9.662,939.947,-53813044.0,2.307,1.935,0.0,0.0,0.0,4.125,-5.689
10524,2,10524,36,-9.696,-1.408,-9.666,67.974,9.698,44.896,0.264,0.254,0.225,-491.0,-9.288,-1.493,-9.860,68.298,9.690,44.182,0.360,0.40,0.77,-491.0,10.848,90531.421,940.194,10.855,90529.500,940.262,10524,-9.666,940.262,-54160956.0,8.767,1.791,0.0,0.0,0.0,4.131,-5.691
10566,2,10566,42,-9.688,-1.422,-9.705,68.254,9.681,44.305,0.223,0.201,0.149,-491.0,-9.576,-1.579,-9.975,68.386,9.836,43.101,0.205,0.61,0.47,-491.0,10.850,90532.31,940.177,10.855,90536.140,940.372,10566,-9.705,940.372,-54567760.0,2.609,1.927,0.0,0.0,0.0,4.125,-5.714
10602,2,10602,36,-9.810,-1.375,-9.687,68.453,9.713,43.767,0.185,0.39,0.95,-491.0,-9.597,-1.306,-9.824,68.547,9.982,43.13,0.109,0.233,0.21,-491.0,10.855,90531.70,940.122,10.865,90527.93,940.179,10602,-9.687,940.179,-54916836.0,-5.355,2.191,0.0,0.0,0.0,4.125,-5.704
10645,2,10645,43,-9.636,-1.264,-9.784,68.439,9.722,43.604,0.198,0.21,0.43,-491.0,-9.561,0.739,-9.860,68.474,9.660,43.496,0.82,0.30,0.36,-491.0,10.858,90530.523,940.207,10.869,90528.156,940.276,10645,-9.784,940.276,-55335488.0,2.242,1.936,0.0,0.0,0.0,4.125,-5.760
10682,2,10682,37,-9.708,-1.82,-9.899,68.523,9.748,43.560,0.155,0.23,0.29,-491.0,-10.516,0.294,-9.975,68.912,9.573,44.7,0.18,0.44,0.99,-491.0,10.864,90529.562,940.380,10.874,90526.953,940.810,10682,-9.899,940.810,-55699628.0,14.455,1.697,0.0,0.0,0.0,4.125,-5.828
10724,2,10724,42,-9.692,0.772,-9.887,68.550,9.722,43.566,0.101,0.61,0.25,-491.0,-9.209,0.57,-9.802,68.430,9.558,44.212,0.92,0.148,0.60,-491.0,10.866,90529.273,940.264,10.869,90528.7,939.683,10724,-9.887,939.683,-56115144.0,-26.846,6.138,0.0,0.0,0.0,4.125,-5.821
10771,2,10771,47,-9.567,0.585,-9.904,68.520,9.652,43.867,0.84,0.76,0.21,-491.0,-8.951,0.646,-10.61,68.240,9.485,44.606,0.121,0.17,0.68,-491.0,10.872,90528.523,940.209,10.883,90532.390,940.95,10771,-9.904,940.95,-56580264.0,8.778,1.791,0.0,0.0,0.0,4.125,-5.831
10814,2,10814,43,-9.593,0.559,-9.888,68.605,9.567,44.142,0.46,0.35,0.24,-491.0,-9.726,-1.177,-9.745,68.971,9.558,44.387,0.83,0.24,0.6,-491.0,10.874,90528.257,940.274,10.874,90525.750,940.507,10814,-9.888,940.507,-57005828.0,9.581,1.776,0.0,0.0,0.0,4.125,-5.822
10850,2,10850,36,-9.619,0.677,-9.850,68.471,9.605,44.258,0.14,0.25,0.7,-491.0,-9.690,-1.328,-9.666,67.801,9.850,44.80,0.75,0.20,0.47,-491.0,10.877,90528.421,940.301,10.883,90529.70,940.411,10850,-9.850,940.411,-57361132.0,-2.677,2.87,0.0,0.0,0.0,4.125,-5.799
10892,2,10892,42,-9.550,0.878,-9.822,68.629,9.619,44.261,0.31,0.39,0.25,-491.0,-10.171,-1.299,-9.838,69.701,9.646,44.22,0.214,0.28,0.63,-491.0,10.879,90530.187,940.282,10.888,90535.710,940.714,10892,-9.822,940.714,-57774268.0,7.213,1.822,0.0,0.0,0.0,4.125,-5.783
10928,2,10928,36,-9.715,-1.85,-9.718,68.672,9.637,44.334,0.107,0.56,0.48,-491.0,-10.35,0.976,-9.278,68.649,9.646,44.577,0.287,0.233,0.56,-491.0,10.882,90530.578,940.408,10.883,90529.984,940.314,10928,-9.718,940.314,-58126008.0,-11.108,2.499,0.0,0.0,0.0,4.125,-5.722
10971,2,10971,43,-9.722,-1.55,-9.563,68.713,9.739,44.574,0.126,0.59,0.32,-491.0,-8.987,0.495,-9.285,68.444,9.997,45.805,0.27,0.30,0.11,-491.0,10.884,90529.648,940.471,10.892,90527.726,940.411,10971,-9.563,940.411,-58540552.0,2.254,1.936,0.0,0.0,0.0,4.125,-5.630
11007,2,11007,36,-9.652,0.983,-9.575,68.631,9.818,44.665,0.88,0.44,0.28,-491.0,-9.375,0.818,-9.810,68.561,9.953,44.840,0.108,0.49,0.14,-491.0,10.889,90530.734,940.455,10.897,90531.187,940.424,11007,-9.575,940.424,-58885056.0,0.352,1.989,0.0,0.0,0.0,4.125,-5.638
11049,2,11049,42,-9.639,0.923,-9.667,68.795,9.897,44.779,0.62,0.37,0.19,-491.0,-9.626,-1.26,-10.125,68.620,10.245,44.650,0.53,0.56,0.5,-491.0,10.892,90529.140,940.477,10.901,90521.85,940.521,11049,-9.667,940.521,-59289176.0,2.307,1.935,0.0,0.0,0.0,4.125,-5.692
11085,2,11085,36,-9.632,0.898,-9.720,68.512,9.970,44.928,0.29,0.38,0.3,-491.0,-10.135,-1.177,-10.104,68.284,10.11,44.767,0.51,0.35,0.16,-491.0,10.893,90528.453,940.419,10.892,90532.250,940.424,11085,-9.720,940.424,-59638176.0,-2.692,2.87,0.0,0.0,0.0,4.125,-5.723
11128,2,11128,43,-9.587,0.888,-9.824,68.553,10.40,45.21,0.14,0.11,0.9,-491.0,-9.812,0.926,-9.795,68.854,9.997,45.45,0.65,0.98,0.8,-491.0,10.897,90528.898,940.339,10.901,90532.250,939.915,11128,-9.824,939.915,-60058400.0,-11.823,2.549,0.0,0.0,0.0,4.125,-5.784
11164,2,11164,36,-9.722,0.982,-9.936,68.579,10.78,44.978,0.1,0.2,0.6,-491.0,-9.662,0.961,-9.845,68.576,10.187,45.586,0.37,0.15,0.1,-491.0,10.897,90528.23,940.278,10.892,90523.343,940.108,11164,-9.936,940.108,-60414092.0,5.354,1.861,0.0,0.0,0.0,4.125,-5.850
11206,2,11206,42,-9.751,0.969,-9.950,68.582,10.172,45.39,0.16,0.10,0.3,-491.0,-9.518,0.753,-9.881,68.576,10.420,45.147,0.18,0.10,0.0,-491.0,10.896,90528.687,940.278,10.892,90534.507,940.424,11206,-9.950,940.424,-60831720.0,7.516,1.816,0.0,0.0,0.0,4.125,-5.858
11242,2,11242,36,-9.736,0.951,-9.983,68.702,10.184,45.100,0.32,0.24,0.8,-491.0,-9.554,0.940,-10.290,69.219,10.304,44.957,0.27,0.14,0.17,-491.0,10.894,90531.398,940.198,10.892,90534.648,940.121,11242,-9.983,940.121,-61190540.0,-8.400,2.336,0.0,0.0,0.0,4.137,-5.878
11316,2,11316,74,-9.667,0.880,-9.979,68.941,10.178,45.65,0.37,0.17,0.11,-491.0,-9.791,0.818,-10.82,69.482,9.982,44.592,0.74,0.1,0.31,-491.0,10.896,90531.484,940.89,10.901,90532.679,939.876,11316,-9.979,939.876,-61929176.0,-3.312,2.110,0.0,0.0,0.0,4.131,-5.875
11353,2,11353,37,-9.629,0.893,-10.5,69.47,10.149,44.945,0.46,0.0,0.5,-491.0,-9.619,0.990,-9.924,69.380,9.850,44.446,0.112,0.14,0.21,-491.0,10.890,90530.875,940.144,10.874,90529.210,940.192,11353,-10.5,940.192,-62298892.0,8.530,1.796,0.0,0.0,0.0,4.125,-5.891
11397,2,11397,44,-9.596,0.890,-9.979,69.123,10.102,44.726,0.60,0.8,0.0,-491.0,-9.497,0.947,-9.716,68.956,9.953,44.489,0.105,0.23,0.22,-491.0,10.887,90531.843,940.120,10.874,90528.156,939.986,11397,-9.979,939.986,-62738556.0,-4.681,2.163,0.0,0.0,0.0,4.131,-5.875
11433,2,11433,36,-9.574,0.961,-9.969,69.204,10.81,44.770,0.86,0.17,0.0,-491.0,-9.410,-1.112,-9.831,68.985,10.318,45.366,0.112,0.33,0.5,-491.0,10.882,90532.359,940.35,10.869,90537.54,939.998,11433,-9.969,939.998,-63097632.0,0.350,1.989,0.0,0.0,0.0,4.125,-5.869
11476,2,11476,43,-9.626,-1.15,-9.802,69.120,10.40,44.846,0.104,0.29,0.4,-491.0,-9.812,-1.205,-9.458,68.795,10.99,45.337,0.116,0.77,0.2,-491.0,10.878,90530.812,940.27,10.874,90526.953,940.82,11476,-9.802,940.82,-63522732.0,1.947,1.944,0.0,0.0,0.0,4.125,-5.771
11513,2,11513,37,-9.596,-1.104,-9.675,69.134,9.994,44.992,0.87,0.43,0.15,-491.0,-9.640,-1.263,-9.443,69.555,9.748,45.323,0.8,0.65,0.25,-491.0,10.871,90530.359,940.68,10.865,90530.414,940.82,11513,-9.675,940.82,-63883072.0,0.0,2.0,0.0,0.0,0.0,4.125,-5.696
11555,2,11555,42,-9.555,-1.170,-9.647,68.921,10.17,45.191,0.63,0.50,0.20,-491.0,-9.418,-1.320,-9.788,68.313,9.967,45.439,0.7,0.50,0.44,-491.0,10.872,90531.718,940.88,10.878,90536.0,940.289,11555,-9.647,940.289,-64288852.0,4.917,1.871,0.0,0.0,0.0,4.125,-5.680
11591,2,11591,36,-9.510,-1.137,-9.588,68.950,10.111,45.425,0.56,0.69,0.17,-491.0,-9.267,0.782,-9.422,69.102,10.420,45.659,0.68,0.120,0.8,-491.0,10.870,90531.710,940.126,10.865,90528.156,940.179,11591,-9.588,940.179,-64635112.0,-3.44,2.100,0.0,0.0,0.0,4.125,-5.645
11633,2,11633,42,-9.577,-1.16,-9.594,68.859,10.169,45.384,0.49,0.74,0.2,-491.0,-9.748,0.509,-9.860,68.532,10.610,45.162,0.75,0.60,0.96,-491.0,10.871,90530.171,940.124,10.874,90529.359,939.986,11633,-9.594,939.986,-65037968.0,-4.602,2.160,0.0,0.0,0.0,4.125,-5.649
11669,2,11669,36,-9.659,0.861,-9.690,68.833,10.157,45.363,0.41,0.83,0.23,-491.0,-10.222,0.430,-9.939,68.664,10.40,45.235,0.81,0.122,0.99,-491.0,10.870,90531.78,940.63,10.869,90531.476,939.779,11669,-9.690,939.779,-65385108.0,-5.739,2.207,0.0,0.0,0.0,4.125,-5.705
11713,2,11713,44,-9.823,0.722,-9.831,68.751,10.149,45.439,0.55,0.74,0.39,-491.0,-10.459,0.567,-10.147,69.146,9.704,45.703,0.57,0.18,0.55,-491.0,10.872,90531.54,940.82,10.874,90530.273,940.179,11713,-9.831,940.179,-65814600.0,9.88,1.785,0.0,0.0,0.0,4.131,-5.788
11749,2,11749,36,-9.960,0.587,-9.944,68.988,10.14,45.524,0.68,0.65,0.57,-491.0,-10.107,0.646,-10.355,69.497,9.295,45.863,0.58,0.6,0.44,-491.0,10.871,90530.593,940.66,10.874,90533.734,940.205,11749,-9.944,940.205,-66170576.0,0.720,1.978,0.0,0.0,0.0,4.125,-5.855
11818,2,11818,69,-9.986,0.597,-10.16,69.152,9.865,45.609,0.91,0.65,0.63,-491.0,-9.396,0.832,-9.781,69.921,9.675,46.83,0.182,0.122,0.20,-491.0,10.874,90530.859,940.22,10.878,90529.500,939.959,11818,-10.16,939.959,-66859256.0,-3.560,2.119,0.0,0.0,0.0,4.131,-5.897
11854,2,11854,36,-9.939,0.693,-9.906,69.424,9.558,45.808,0.102,0.81,0.48,-491.0,-9.511,0.990,-9.307,69.891,9.76,46.156,0.133,0.138,0.21,-491.0,10.871,90530.625,940.38,10.860,90528.156,940.70,11854,-9.906,940.70,-67217872.0,3.60,1.915,0.0,0.0,0.0,4.131,-5.832
11896,2,11896,42,-9.802,0.793,-9.798,69.558,9.272,46.85,0.94,0.66,0.33,-491.0,-9.540,0.933,-9.400,69.336,8.608,46.623,0.39,0.46,0.26,-491.0,10.871,90531.531,940.58,10.869,90536.0,939.876,11896,-9.798,939.876,-67631672.0,-4.603,2.160,0.0,0.0,0.0,4.125,-5.769
11932,2,11932,36,-9.680,0.828,-9.695,69.640,9.140,46.118,0.86,0.52,0.23,-491.0,-9.848,0.739,-9.630,69.555,9.47,45.863,0.17,0.51,0.5,-491.0,10.870,90531.328,940.118,10.869,90529.210,940.481,11932,-9.695,940.481,-67982560.0,16.815,1.664,0.0,0.0,0.0,4.125,-5.708
11975,2,11975,43,-9.669,0.811,-9.564,69.646,9.131,46.255,0.82,0.55,0.13,-491.0,-10.49,0.559,-9.702,69.526,9.251,46.550,0.38,0.23,0.7,-491.0,10.871,90530.203,940.75,10.878,90528.156,939.986,11975,-9.564,939.986,-68396640.0,-11.528,2.528,0.0,0.0,0.0,4.131,-5.631
12011,2,12011,36,-9.683,0.755,-9.541,69.581,8.933,46.319,0.54,0.50,0.3,-491.0,-9.468,0.552,-9.666,69.599,8.681,46.404,0.41,0.97,0.30,-491.0,10.870,90530.843,940.38,10.874,90532.679,939.779,12011,-9.541,939.779,-68740552.0,-5.739,2.207,0.0,0.0,0.0,4.131,-5.618
12053,2,12053,42,-9.600,0.707,-9.593,69.503,8.857,46.328,0.30,0.27,0.1,-491.0,-9.95,0.753,-9.565,69.497,8.696,46.199,0.16,0.21,0.3,-491.0,10.871,90530.390,940.82,10.865,90525.890,940.289,12053,-9.593,940.289,-69142384.0,12.131,1.733,0.0,0.0,0.0,4.131,-5.648
12089,2,12089,36,-9.597,0.687,-9.598,69.511,9.17,46.325,0.26,0.32,0.10,-491.0,-9.525,0.832,-9.429,69.380,9.412,46.609,0.20,0.71,0.18,-491.0,10.873,90529.937,940.85,10.878,90533.734,939.889,12089,-9.598,939.889,-69487840.0,-11.108,2.499,0.0,0.0,0.0,4.125,-5.651
12133,2,12133,44,-9.551,0.736,-9.611,69.345,9.55,46.427,0.13,0.47,0.15,-491.0,-9.619,0.983,-9.695,68.722,9.237,46.375,0.51,0.24,0.16,-491.0,10.873,90530.179,939.942,10.869,90530.414,939.767,12133,-9.611,939.767,-69910480.0,-2.778,2.90,0.0,0.0,0.0,4.125,-5.659
12169,2,12169,36,-9.508,0.802,-9.621,69.351,9.166,46.372,0.5,0.48,0.10,-491.0,-9.834,0.890,-9.752,69.555,9.807,46.273,0.3,0.24,0.17,-491.0,10.871,90529.515,940.2,10.869,90524.835,940.289,12169,-9.621,940.289,-70256688.0,14.504,1.696,0.0,0.0,0.0,4.125,-5.665
12211,2,12211,42,-9.669,0.874,-9.590,69.181,9.307,46.337,0.5,0.28,0.1,-491.0,-10.272,0.911,-9.508,68.751,9.383,46.229,0.13,0.1,0.11,-491.0,10.870,90529.960,940.41,10.869,90534.937,939.973,12211,-9.590,939.973,-70660144.0,-7.527,2.291,0.0,0.0,0.0,4.125,-5.646
12247,2,12247,36,-9.891,0.897,-9.656,68.985,9.503,46.322,0.27,0.20,0.4,-491.0,-10.207,0.868,-9.896,68.517,9.675,46.126,0.97,0.17,0.25,-491.0,10.872,90531.328,940.19,10.874,90532.679,940.179,12247,-9.656,940.179,-71006584.0,5.737,1.853,0.0,0.0,0.0,4.125,-5.685
12290,2,12290,43,-10.44,0.880,-9.776,68.918,9.500,46.164,0.34,0.3,0.7,-491.0,-10.286,0.746,-10.32,69.44,9.397,45.819,0.12,0.11,0.0,-491.0,10.868,90530.476,940.201,10.860,90529.500,940.797,12290,-9.776,940.797,-71424400.0,14.374,1.698,0.0,0.0,0.0,4.125,-5.756
12353,2,12353,63,-10.68,0.809,-9.774,68.968,9.546,46.94,0.22,0.5,0.0,-491.0,-9.741,0.631,-9.680,68.971,9.470,46.24,0.8,0.19,0.51,-491.0,10.866,90529.445,940.421,10.860,90525.265,940.868,12353,-9.774,940.868,-72040256.0,1.127,1.967,0.0,0.0,0.0,4.131,-5.754
12395,2,12395,42,-9.881,0.726,-9.732,68.883,9.491,45.974,0.21,0.2,0.21,-491.0,-8.901,0.473,-9.544,69.131,9.529,45.673,0.4,0.60,0.94,-491.0,10.861,90530.437,940.369,10.842,90529.789,940.30,12395,-9.732,940.30,-72449896.0,-19.961,3.492,0.0,0.0,0.0,4.131,-5.730
12436,2,12436,41,-9.644,0.664,-9.751,69.0,9.590,45.933,0.12,0.18,0.43,-491.0,-9.87,0.602,-9.601,69.336,9.880,46.24,0.33,0.77,0.97,-491.0,10.855,90529.375,940.425,10.842,90529.640,940.250,12436,-9.751,940.250,-72849312.0,5.360,1.861,0.0,0.0,0.0,4.125,-5.741
12472,2,12472,36,-9.557,0.611,-9.795,69.102,9.657,45.898,0.45,0.14,0.68,-491.0,-9.769,0.602,-10.118,69.29,10.11,45.951,0.191,0.37,0.97,-491.0,10.851,90528.312,940.480,10.851,90527.382,940.456,12472,-9.795,940.456,-73201152.0,5.722,1.853,0.0,0.0,0.0,4.131,-5.767
12515,2,12515,43,-9.415,0.613,-9.752,69.125,9.736,45.890,0.114,0.28,0.94,-491.0,-9.576,0.753,-9.817,69.161,9.792,45.776,0.334,0.60,0.129,-491.0,10.849,90529.703,940.329,10.851,90536.421,940.42,12515,-9.752,940.42,-73621440.0,-9.608,2.404,0.0,0.0,0.0,4.131,-5.742
12552,2,12552,37,-9.359,0.717,-9.616,69.351,9.804,45.951,0.167,0.23,0.102,-491.0,-9.461,-1.155,-8.998,70.96,9.807,46.331,0.272,0.45,0.94,-491.0,10.846,90530.781,940.167,10.846,90530.703,940.56,12552,-9.616,940.56,-73979760.0,0.372,1.988,0.0,0.0,0.0,4.131,-5.662
12593,2,12593,41,-9.418,0.881,-9.575,69.541,9.950,46.118,0.174,0.33,0.90,-491.0,-9.195,-1.292,-9.343,70.81,10.260,46.506,0.39,0.114,0.33,-491.0,10.848,90531.453,940.150,10.851,90533.109,939.947,12593,-9.575,939.947,-74373200.0,-2.673,2.87,0.0,0.0,0.0,4.131,-5.638
12629,2,12629,36,-9.586,0.983,-9.469,69.532,9.985,46.211,0.158,0.26,0.64,-491.0,-9.927,-1.112,-9.70,69.292,10.55,46.492,0.47,0.39,0.34,-491.0,10.850,90532.359,940.26,10.851,90534.164,939.631,12629,-9.469,939.631,-74716024.0,-8.767,2.356,0.0,0.0,0.0,4.131,-5.575
12676,2,12676,47,-9.629,-1.75,-9.382,69.590,10.43,46.281,0.90,0.47,0.37,-484.600,-9.985,-1.62,-9.680,69.321,10.304,46.302,0.147,0.69,0.34,-459.0,10.851,90532.601,940.48,10.855,90528.585,940.565,12676,-9.382,940.565,-75159040.0,19.876,1.626,0.0,0.0,0.0,4.131,-5.524
12713,2,12713,37,-9.759,-1.125,-9.374,69.693,10.122,46.273,0.7,0.19,0.29,-484.600,-10.229,-1.4,-9.781,69.672,10.187,45.732,0.79,0.79,0.86,-491.0,10.850,90531.710,940.48,10.846,90532.46,940.42,12713,-9.374,940.42,-75506048.0,-14.128,2.735,0.0,0.0,0.0,4.131,-5.519
12756,2,12756,43,-9.854,-1.66,-9.541,69.590,10.251,46.150,0.66,0.25,0.34,-484.600,-9.934,0.861,-9.831,69.584,10.450,45.717,0.95,0.16,0.123,-491.0,10.849,90532.203,940.126,10.842,90533.109,940.443,12756,-9.541,940.443,-75912752.0,9.314,1.781,0.0,0.0,0.0,4.125,-5.618
12792,2,12792,36,-9.916,-1.12,-9.666,69.576,10.301,46.30,0.91,0.12,0.46,-484.600,-9.504,-1.19,-9.967,70.8,10.508,45.907,0.85,0.51,0.92,-491.0,10.846,90531.62,939.980,10.837,90527.382,939.218,12792,-9.666,939.218,-76258496.0,-34.13,-48.5,0.0,0.0,0.0,4.131,-5.691
12865,2,12865,73,-9.834,0.996,-9.756,69.646,10.488,45.895,0.72,0.12,0.47,-484.600,-9.518,-1.33,-9.522,69.643,10.990,45.819,0.46,0.38,0.30,-491.0,10.843,90530.695,940.115,10.837,90532.335,940.306,12865,-9.756,940.306,-76967448.0,14.901,1.691,0.0,0.0,0.0,4.131,-5.744
12901,2,12901,36,-9.756,-1.7,-9.749,69.690,10.564,45.738,0.35,0.2,0.49,-491.0,-9.597,-1.119,-9.644,69.541,10.684,45.513,0.37,0.18,0.25,-491.0,10.834,90531.453,940.22,10.809,90532.335,940.100,12901,-9.749,940.100,-77318568.0,-5.722,2.207,0.0,0.0,0.0,4.131,-5.740
12944,2,12944,43,-9.647,-1.25,-9.679,69.517,10.742,45.673,0.3,0.36,0.29,-491.0,-9.683,-1.91,-9.429,68.810,11.78,45.410,0.80,0.91,0.11,-491.0,10.829,90530.601,939.973,10.819,90527.812,939.797,12944,-9.679,939.797,-77736296.0,-7.46,2.268,0.0,0.0,0.0,4.131,-5.699
12980,2,12980,36,-9.564,-1.58,-9.568,69.432,10.748,45.741,0.18,0.44,0.3,-491.0,-9.518,-1.26,-9.278,69.161,10.479,46.53,0.14,0.24,0.41,-491.0,10.823,90529.773,939.926,10.814,90529.15,940.210,12980,-9.568,940.210,-78082760.0,11.461,1.744,0.0,0.0,0.0,4.131,-5.634
13022,2,13022,42,-9.672,-1.49,-9.479,69.315,10.812,45.746,0.28,0.20,0.30,-491.0,-10.42,0.976,-9.522,69.424,10.830,45.936,0.36,0.71,0.42,-491.0,10.820,90530.320,940.62,10.823,90530.70,939.894,13022,-9.479,939.894,-78482784.0,-7.514,2.291,0.0,0.0,0.0,4.131,-5.581
13058,2,13058,36,-9.758,-1.6,-9.486,69.321,10.762,45.855,0.11,0.18,0.27,-491.0,-9.949,0.818,-9.558,69.672,10.742,46.360,0.40,0.28,0.16,-491.0,10.816,90530.554,939.979,10.814,90533.531,939.894,13058,-9.486,939.894,-78824184.0,0.0,2.0,0.0,0.0,0.0,4.131,-5.585
13101,2,13101,43,-9.782,-1.23,-9.466,69.175,10.783,45.922,0.6,0.16,0.23,-491.0,-9.719,-1.205,-9.544,68.810,10.786,45.849,0.49,0.7,0.5,-491.0,10.816,90530.125,939.999,10.809,90530.210,940.197,13101,-9.466,940.197,-79231688.0,7.44,1.825,0.0,0.0,0.0,4.131,-5.574
13137,2,13137,36,-9.788,0.979,-9.540,69.389,10.651,46.24,0.28,0.4,0.23,-491.0,-9.712,0.868,-9.795,69.877,10.420,45.922,0.31,0.35,0.8,-491.0,10.813,90530.601,939.996,10.805,90530.210,939.785,13137,-9.540,939.785,-79573816.0,-11.459,2.523,0.0,0.0,0.0,4.131,-5.617
13179,2,13179,42,-9.825,0.990,-9.644,69.576,10.748,45.945,0.32,0.7,0.18,-491.0,-9.705,-1.83,-9.802,70.96,10.961,45.659,0.6,0.34,0.16,-491.0,10.811,90532.203,940.73,10.805,90537.0,940.597,13179,-9.644,940.597,-79976704.0,19.332,1.632,0.0,0.0,0.0,4.131,-5.678
13215,2,13215,36,-9.785,-1.17,-9.690,69.728,10.745,45.925,0.26,0.27,0.8,-491.0,-9.841,-1.112,-9.752,70.184,10.815,45.834,0.7,0.29,0.3,-491.0,10.807,90532.718,940.153,10.800,90532.617,940.294,13215,-9.690,940.294,-80324744.0,-8.416,2.337,0.0,0.0,0.0,4.131,-5.705
13258,2,13258,43,-9.643,-1.59,-9.710,69.628,10.748,45.758,0.19,0.25,0.1,-491.0,-9.238,-1.26,-9.659,69.175,10.757,45.527,0.4,0.20,0.36,-491.0,10.805,90532.539,940.354,10.805,90532.617,940.899,13258,-9.710,940.899,-80741880.0,14.79,1.703,0.0,0.0,0.0,4.131,-5.717
13294,2,13294,36,-9.564,-1.2,-9.700,69.766,10.783,45.729,0.3,0.38,0.13,-491.0,-9.324,0.918,-9.494,69.497,10.961,45.703,0.33,0.70,0.54,-491.0,10.802,90532.351,940.371,10.796,90529.296,940.281,13294,-9.700,940.281,-81091296.0,-17.169,3.62,0.0,0.0,0.0,4.131,-5.711
13347,2,13347,53,-9.511,0.987,-9.639,69.625,10.920,45.621,0.2,0.42,0.27,-491.0,-9.446,0.796,-9.486,69.175,11.107,45.381,0.1,0.57,0.57,-491.0,10.800,90532.671,940.489,10.796,90531.843,940.377,13347,-9.639,940.377,-81603808.0,1.808,1.948,0.0,0.0,0.0,4.131,-5.675
13383,2,13383,36,-9.510,0.966,-9.598,69.447,10.859,45.635,0.6,0.29,0.43,-491.0,-9.698,0.976,-9.601,69.204,10.654,45.732,0.12,0.32,0.64,-491.0,10.797,90530.710,940.468,10.786,90527.179,940.487,13383,-9.598,940.487,-81950096.0,3.61,1.915,0.0,0.0,0.0,4.131,-5.651
13427,2,13427,44,-9.515,0.961,-9.610,69.184,10.950,45.556,0.6,0.29,0.53,-491.0,-9.870,-1.91,-9.810,68.868,11.268,45.439,0.9,0.33,0.53,-491.0,10.794,90530.523,940.484,10.786,90531.703,940.377,13427,-9.610,940.377,-82372704.0,-2.505,2.81,0.0,0.0,0.0,4.131,-5.658
13463,2,13463,36,-9.623,-1.3,-9.636,69.26,10.976,45.515,0.12,0.42,0.52,-491.0,-9.777,-1.234,-9.788,68.386,10.888,45.323,0.25,0.82,0.32,-491.0,10.791,90530.312,940.462,10.791,90531.562,940.789,13463,-9.636,940.789,-82719144.0,11.462,1.744,0.0,0.0,0.0,4.131,-5.673
13505,2,13505,42,-9.734,-1.45,-9.639,68.897,11.99,45.480,0.20,0.51,0.50,-491.0,-9.877,-1.127,-9.508,68.854,11.575,45.527,0.74,0.114,0.42,-491.0,10.790,90531.257,940.481,10.791,90533.960,940.377,13505,-9.639,940.377,-83123928.0,-9.825,2.417,0.0,0.0,0.0,4.131,-5.675
13541,2,13541,36,-9.761,-1.101,-9.613,68.722,11.154,45.603,0.22,0.46,0.42,-491.0,-9.583,-1.76,-9.357,68.298,11.385,45.995,0.7,0.33,0.20,-491.0,10.789,90531.203,940.503,10.791,90531.562,940.487,13541,-9.613,940.487,-83470472.0,3.61,1.915,0.0,0.0,0.0,4.131,-5.660
13584,2,13584,43,-9.771,-1.141,-9.644,68.684,11.306,45.568,0.17,0.51,0.33,-491.0,-9.748,-1.177,-9.759,69.14,11.414,45.556,0.10,0.7,0.19,-491.0,10.791,90531.648,940.523,10.796,90529.437,940.583,13584,-9.644,940.583,-83884520.0,2.241,1.936,0.0,0.0,0.0,4.131,-5.678
13620,2,13620,36,-9.718,-1.131,-9.617,68.719,11.484,45.673,0.31,0.57,0.32,-491.0,-9.604,-1.40,-9.673,69.44,12.160,45.966,0.60,0.66,0.47,-491.0,10.791,90530.953,940.542,10.786,90528.242,940.474,13620,-9.617,940.474,-84231248.0,-3.44,2.100,0.0,0.0,0.0,4.131,-5.662
13662,2,13662,42,-9.725,-1.99,-9.560,68.707,11.651,45.784,0.29,0.46,0.29,-491.0,-9.812,-1.76,-9.501,68.327,11.721,45.878,0.16,0.28,0.18,-491.0,10.790,90530.531,940.479,10.786,90529.437,940.474,13662,-9.560,940.474,-84633984.0,0.0,2.0,0.0,0.0,0.0,4.125,-5.629
13699,2,13699,37,-9.702,-1.108,-9.619,68.804,11.607,45.895,0.17,0.26,0.23,-491.0,-9.762,-1.170,-9.802,69.336,11.356,46.83,0.12,0.12,0.11,-491.0,10.789,90530.320,940.397,10.786,90532.906,939.965,13699,-9.619,939.965,-84988800.0,-13.741,2.701,0.0,0.0,0.0,4.131,-5.663
13742,2,13742,43,-9.726,-1.52,-9.705,68.930,11.622,45.945,0.25,0.30,0.19,-491.0,-9.705,0.796,-9.788,68.927,11.458,46.243,0.50,0.52,0.0,-491.0,10.786,90531.70,940.391,10.777,90535.304,940.461,13742,-9.705,940.461,-85404272.0,11.528,1.743,0.0,0.0,0.0,4.131,-5.714
13778,2,13778,36,-9.597,-1.17,-9.749,68.792,11.631,46.56,0.24,0.25,0.25,-491.0,-9.102,-1.4,-9.982,68.327,11.458,46.112,0.18,0.33,0.51,-491.0,10.782,90530.890,940.309,10.773,90528.523,940.171,13778,-9.749,940.171,-85754464.0,-8.48,2.318,0.0,0.0,0.0,4.131,-5.740
13820,2,13820,42,-9.662,-1.118,-9.841,68.789,11.558,46.68,0.56,0.29,0.42,-491.0,-9.927,-1.543,-10.133,69.29,11.794,46.24,0.220,0.86,0.129,-491.0,10.780,90530.937,940.163,10.777,90528.523,939.746,13820,-9.841,939.746,-86165880.0,-10.137,2.437,0.0,0.0,0.0,4.131,-5.794
13889,2,13889,69,-9.498,-1.175,-9.739,68.696,11.441,46.261,0.106,0.73,0.68,-491.0,-8.994,-1.363,-8.991,67.860,11.137,46.843,0.269,0.252,0.149,-491.0,10.778,90531.54,940.73,10.777,90530.7,940.23,13889,-9.739,940.23,-86841432.0,4.23,1.892,0.0,0.0,0.0,4.131,-5.734
13930,2,13930,41,-9.422,-1.217,-9.497,68.398,11.420,46.451,0.152,0.112,0.75,-491.0,-9.382,-1.378,-8.589,67.845,11.254,47.33,0.242,0.204,0.44,-491.0,10.772,90529.578,940.126,10.754,90525.492,940.229,13930,-9.497,940.229,-87235784.0,5.25,1.868,0.0,0.0,0.0,4.131,-5.591
13966,2,13966,36,-9.439,-1.326,-9.264,68.146,11.368,46.711,0.153,0.126,0.76,-491.0,-9.791,-1.342,-8.625,67.670,11.195,47.544,0.53,0.125,0.8,-491.0,10.766,90528.484,939.937,10.750,90529.867,939.513,13966,-9.264,939.513,-87573488.0,-19.890,3.479,0.0,0.0,0.0,4.131,-5.454
14013,2,14013,47,-9.680,-1.440,-9.107,68.53,11.259,47.6,0.140,0.137,0.64,-491.0,-10.308,-1.572,-9.199,67.860,10.917,47.588,0.83,0.19,0.7,-491.0,10.764,90529.421,939.970,10.763,90533.187,940.339,14013,-9.107,940.339,-88005240.0,17.567,1.654,0.0,0.0,0.0,4.131,-5.362
14049,2,14049,36,-9.735,-1.399,-8.993,67.798,11.160,47.261,0.76,0.125,0.43,-491.0,-10.200,-1.342,-9.558,67.757,11.297,47.296,0.101,0.26,0.21,-491.0,10.762,90530.773,940.91,10.763,90535.304,940.351,14049,-8.993,940.351,-88331056.0,0.350,1.989,0.0,0.0,0.0,4.131,-5.295
14092,2,14092,43,-9.932,-1.396,-9.103,67.793,11.318,47.325,0.7,0.79,0.24,-491.0,-9.978,-1.349,-9.544,67.831,11.926,47.164,0.76,0.19,0.54,-491.0,10.760,90530.476,940.259,10.768,90528.523,940.861,14092,-9.103,940.861,-88720136.0,11.837,1.737,0.0,0.0,0.0,4.131,-5.360
14134,2,14134,42,-9.968,-1.404,-9.336,67.746,11.385,47.433,0.47,0.45,0.32,-491.0,-9.561,-1.414,-9.752,67.611,11.590,47.573,0.32,0.34,0.85,-491.0,10.763,90531.773,940.223,10.773,90531.984,940.49,14134,-9.336,940.49,-89107376.0,-19.332,3.380,0.0,0.0,0.0,4.131,-5.497
14170,2,14170,36,-9.824,-1.356,-9.485,67.731,11.476,47.421,0.45,0.33,0.41,-491.0,-9.73,-1.105,-9.372,67.597,11.648,47.486,0.65,0.68,0.53,-491.0,10.766,90530.601,940.390,10.763,90524.0,940.351,14170,-9.485,940.351,-89446168.0,8.414,1.798,0.0,0.0,0.0,4.131,-5.585
14212,2,14212,42,-9.652,-1.259,-9.484,67.763,11.552,47.477,0.22,0.26,0.43,-491.0,-9.446,-1.83,-9.192,68.21,11.297,47.866,0.31,0.16,0.3,-491.0,10.769,90529.218,940.352,10.777,90526.265,940.145,14212,-9.484,940.145,-89844528.0,-4.904,2.172,0.0,0.0,0.0,4.131,-5.584
14248,2,14248,36,-9.478,-1.227,-9.466,67.880,11.560,47.559,0.0,0.23,0.38,-491.0,-9.332,-1.184,-9.472,68.342,11.341,47.705,0.14,0.14,0.4,-491.0,10.771,90527.640,940.395,10.773,90527.460,940.571,14248,-9.466,940.571,-90185648.0,11.811,1.738,0.0,0.0,0.0,4.131,-5.574
14291,2,14291,43,-9.382,-1.220,-9.405,67.956,11.555,47.661,0.29,0.30,0.27,-491.0,-9.497,-1.313,-9.235,68.211,11.897,47.676,0.69,0.52,0.1,-491.0,10.774,90528.101,940.274,10.782,90530.781,940.255,14291,-9.405,940.255,-90591400.0,-7.352,2.283,0.0,0.0,0.0,4.131,-5.537
14327,2,14327,36,-9.327,-1.211,-9.303,68.29,11.540,47.717,0.41,0.32,0.6,-491.0,-9.288,-1.371,-9.242,67.977,11.517,47.851,0.23,0.43,0.19,-491.0,10.774,90525.601,940.274,10.773,90519.484,940.49,14327,-9.303,940.49,-90928152.0,-5.722,2.207,0.0,0.0,0.0,4.131,-5.477
14400,2,14400,73,-9.479,-1.289,-9.324,68.61,11.493,47.743,0.46,0.31,0.7,-491.0,-9.834,-1.493,-9.479,67.757,11.414,47.617,0.94,0.62,0.13,-491.0,10.776,90525.0,940.371,10.777,90520.968,940.835,14400,-9.324,940.835,-91608072.0,10.768,1.755,0.0,0.0,0.0,4.131,-5.490
14437,2,14437,37,-9.521,-1.340,-9.327,68.15,11.479,47.681,0.52,0.36,0.7,-491.0,-9.655,-1.342,-9.207,67.787,11.224,47.559,0.61,0.9,0.1,-491.0,10.771,90524.812,940.368,10.750,90525.343,940.132,14437,-9.327,940.132,-91953144.0,-18.998,3.325,0.0,0.0,0.0,4.131,-5.492
14479,2,14479,42,-9.527,-1.386,-9.270,67.915,11.476,47.582,0.56,0.47,0.7,-491.0,-9.360,-1.414,-9.185,67.845,11.327,47.208,0.35,0.71,0.4,-491.0,10.768,90524.632,940.280,10.759,90526.546,940.132,14479,-9.270,940.132,-92343696.0,0.0,2.0,0.0,0.0,0.0,4.131,-5.458
14515,2,14515,36,-9.514,-1.415,-9.260,67.790,11.306,47.626,0.47,0.41,0.5,-491.0,-9.432,-1.457,-9.185,67.582,11.49,47.895,0.23,0.19,0.6,-491.0,10.763,90524.203,940.338,10.754,90528.664,940.545,14515,-9.260,940.545,-92677240.0,11.476,1.743,0.0,0.0,0.0,4.131,-5.452
14558,2,14558,43,-9.610,-1.425,-9.225,67.757,11.224,47.591,0.45,0.37,0.11,-491.0,-9.769,-1.421,-9.70,67.816,11.107,47.676,0.13,0.22,0.46,-491.0,10.761,90526.484,940.377,10.763,90530.929,940.242,14558,-9.225,940.242,-93074688.0,-7.46,2.268,0.0,0.0,0.0,4.131,-5.432
14594,2,14594,36,-9.580,-1.417,-9.158,67.755,11.137,47.617,0.28,0.41,0.8,-491.0,-9.683,-1.450,-9.142,67.743,10.976,47.749,0.9,0.87,0.0,-491.0,10.760,90528.484,940.239,10.773,90530.929,940.145,14594,-9.158,940.145,-93405600.0,-2.677,2.87,0.0,0.0,0.0,4.131,-5.392
14636,2,14636,42,-9.767,-1.546,-9.117,67.804,11.102,47.772,0.41,0.91,0.3,-491.0,-10.588,-1.988,-9.6,68.35,11.49,48.333,0.128,0.258,0.63,-491.0,10.765,90528.234,940.223,10.777,90524.148,940.49,14636,-9.117,940.49,-93789400.0,-2.307,2.74,0.0,0.0,0.0,4.131,-5.368
14672,2,14672,36,-10.269,-1.629,-8.961,67.652,11.17,48.222,0.102,0.215,0.5,-491.0,-11.873,-1.830,-8.403,67.85,10.903,49.459,0.340,0.689,0.7,-491.0,10.766,90529.328,940.247,10.763,90531.984,940.255,14672,-8.961,940.255,-94114832.0,5.722,1.853,0.0,0.0,0.0,4.131,-5.276
14716,2,14716,44,-9.936,-1.478,-8.797,67.456,10.917,48.944,0.121,0.440,0.30,-491.0,-7.767,0.703,-8.367,66.603,10.552,51.505,0.113,1.144,0.129,-491.0,10.770,90529.335,940.126,10.773,90528.664,939.939,14716,-8.797,939.939,-94505536.0,-7.173,2.274,0.0,0.0,0.0,4.131,-5.180
14753,2,14753,37,-9.613,-1.501,-8.568,66.875,10.891,49.885,0.127,0.559,0.78,-491.0,-8.154,-1.536,-7.922,64.907,10.976,52.382,0.43,0.616,0.192,-491.0,10.771,90529.70,940.211,10.768,90529.585,940.667,14753,-8.568,940.667,-94826808.0,19.681,1.628,0.0,0.0,0.0,4.131,-5.44
14795,2,14795,42,-9.718,-1.567,-8.446,66.305,10.903,51.113,0.112,0.573,0.39,-491.0,-10.207,-1.780,-8.532,64.893,11.34,53.887,0.65,0.156,0.193,-491.0,10.773,90528.343,940.235,10.782,90527.320,940.268,14795,-8.446,940.268,-95184104.0,-9.508,2.399,0.0,0.0,0.0,4.131,-4.973
14832,2,14832,37,-9.520,-1.432,-8.418,65.650,10.906,52.323,0.93,0.618,0.58,-491.0,-9.597,-1.313,-8.869,64.761,11.64,54.384,0.34,0.485,0.158,-491.0,10.773,90529.421,940.318,10.777,90529.585,940.461,14832,-8.418,940.461,-95496104.0,5.224,1.864,0.0,0.0,0.0,4.131,-4.956
14905,2,14905,73,-8.892,-1.294,-8.200,64.679,11.11,53.662,0.47,0.577,0.97,-491.0,-8.736,-1.141,-7.311,62.233,11.429,56.153,0.112,0.484,0.203,-491.0,10.776,90528.335,940.272,10.782,90526.546,940.23,14905,-8.200,940.23,-96102712.0,-5.999,2.219,0.0,0.0,0.0,4.131,-4.828
14942,2,14942,37,-9.116,-1.373,-8.22,63.995,11.183,54.735,0.24,0.369,0.102,-491.0,-8.886,-1.98,-7.476,63.183,11.414,56.869,0.0,0.101,0.153,-491.0,10.775,90528.828,940.354,10.763,90531.70,940.351,14942,-8.22,940.351,-96402840.0,8.873,1.789,0.0,0.0,0.0,4.131,-4.723
14984,2,14984,42,-9.320,-1.332,-8.101,63.601,11.438,55.673,0.1,0.274,0.97,-491.0,-9.174,-1.328,-8.316,62.934,12.247,57.73,0.72,0.141,0.168,-491.0,10.775,90528.156,940.250,10.768,90526.265,940.145,14984,-8.101,940.145,-96741448.0,-4.904,2.172,0.0,0.0,0.0,4.131,-4.770
15020,2,15020,36,-8.958,-1.326,-8.131,63.116,11.791,56.419,0.21,0.289,0.186,-491.0,-8.398,-1.751,-8.682,62.467,12.803,57.614,0.31,0.233,0.248,-491.0,10.774,90529.734,940.349,10.777,90535.164,940.764,15020,-8.131,940.764,-97033648.0,17.183,1.659,0.0,0.0,0.0,4.131,-4.787
15062,2,15062,42,-8.807,-1.375,-7.871,62.540,12.81,57.152,0.60,0.265,0.180,-491.0,-8.843,-1.557,-7.570,61.882,12.510,58.53,0.232,0.366,0.128,-491.0,10.773,90529.273,940.206,10.773,90527.320,939.746,15062,-7.871,939.746,-97369720.0,-24.249,4.669,0.0,0.0,0.0,4.131,-4.634
15098,2,15098,36,-8.803,-1.392,-7.834,62.309,12.215,57.649,0.89,0.260,0.140,-491.0,-8.714,-1.227,-7.125,61.78,12.101,58.637,0.255,0.457,0.1,-491.0,10.771,90528.765,940.296,10.773,90524.0,940.474,15098,-7.834,940.474,-97652432.0,20.228,1.622,0.0,0.0,0.0,4.131,-4.612
15141,2,15141,43,-8.662,-1.427,-7.778,61.826,12.280,58.132,0.118,0.295,0.114,-491.0,-8.183,-1.270,-7.197,60.771,11.736,59.280,0.145,0.278,0.27,-491.0,10.775,90528.437,940.442,10.786,90529.437,941.80,15141,-7.778,941.80,-97988112.0,14.92,1.702,0.0,0.0,0.0,4.131,-4.579
15177,2,15177,36,-8.553,-1.442,-7.568,61.324,12.110,58.582,0.169,0.302,0.94,-491.0,-8.628,-1.406,-7.268,60.420,11.400,59.324,0.182,0.176,0.64,-491.0,10.777,90528.171,940.488,10.777,90524.921,940.377,15177,-7.568,940.377,-98264368.0,-19.526,3.414,0.0,0.0,0.0,4.131,-4.456
15219,2,15219,42,-8.665,-1.445,-7.214,60.988,11.809,58.962,0.233,0.275,0.43,-491.0,-8.958,-1.765,-6.909,60.786,11.297,59.514,0.350,0.97,0.4,-491.0,10.779,90527.234,940.411,10.786,90530.500,940.377,15219,-7.214,940.377,-98574816.0,0.0,2.0,0.0,0.0,0.0,4.131,-4.247
15266,2,15266,47,-8.681,-1.451,-7.73,60.800,11.444,59.272,0.254,0.178,0.6,-491.0,-8.922,-1.586,-6.866,60.947,10.684,59.602,0.336,0.115,0.122,-491.0,10.782,90527.875,940.515,10.786,90530.500,940.268,15266,-7.73,940.268,-98910584.0,-2.319,2.74,0.0,0.0,0.0,4.131,-4.164
15302,2,15302,36,-8.799,-1.531,-6.997,61.17,11.119,59.406,0.275,0.71,0.11,-491.0,-9.303,-1.629,-6.744,62.160,10.479,59.310,0.364,0.81,0.20,-491.0,10.785,90529.414,940.496,10.786,90531.703,940.377,15302,-6.997,940.377,-99163864.0,3.28,1.916,0.0,0.0,0.0,4.125,-4.120
15345,2,15345,43,-8.899,-1.587,-6.878,61.236,10.806,59.517,0.240,0.31,0.13,-491.0,-8.685,-1.550,-6.601,61.867,10.172,59.836,0.30,0.234,0.14,-491.0,10.786,90528.726,940.396,10.791,90525.976,940.583,15345,-6.878,940.583,-99462192.0,4.804,1.874,0.0,0.0,0.0,4.131,-4.49
15413,2,15413,68,-9.75,-1.695,-6.894,61.692,10.695,59.333,0.176,0.123,0.12,-491.0,-9.504,-1.945,-7.347,62.700,10.844,58.403,0.137,0.280,0.72,-491.0,10.789,90528.54,940.474,10.796,90521.601,940.764,15413,-6.894,940.764,-99930456.0,2.656,1.926,0.0,0.0,0.0,4.131,-4.59
15455,2,15455,42,-9.344,-1.675,-6.932,61.996,10.590,58.944,0.81,0.167,0.3,-491.0,-10.308,-1.665,-7.103,62.306,10.771,57.570,0.124,0.125,0.39,-491.0,10.787,90528.85,940.636,10.777,90530.640,941.189,15455,-6.932,941.189,-100220824.0,10.126,1.767,0.0,0.0,0.0,4.131,-4.82
15491,2,15491,36,-9.484,-1.661,-7.64,62.323,10.672,58.485,0.39,0.148,0.5,-491.0,-9.619,-1.514,-7.527,62.584,11.93,57.307,0.269,0.21,0.80,-491.0,10.786,90525.851,940.804,10.782,90519.335,941.105,15491,-7.64,941.105,-100472784.0,-2.341,2.75,0.0,0.0,0.0,4.131,-4.159
15534,2,15534,43,-9.263,-1.590,-7.237,62.420,10.736,58.50,0.204,0.196,0.12,-491.0,-8.197,-1.277,-7.606,62.642,10.800,57.132,0.462,0.318,0.106,-491.0,10.786,90524.250,940.925,10.786,90523.718,940.983,15534,-7.237,940.983,-100780280.0,-2.843,2.93,0.0,0.0,0.0,4.131,-4.261
15570,2,15570,36,-9.258,-1.623,-7.607,62.738,11.137,57.117,0.344,0.296,0.51,-491.0,-8.664,-1.715,-8.453,63.460,12.174,55.173,0.726,0.736,0.182,-491.0,10.785,90523.140,941.7,10.782,90520.398,940.996,15570,-7.607,940.996,-101047488.0,0.366,1.989,0.0,0.0,0.0,4.131,-4.479
15612,2,15612,42,-8.930,-1.523,-7.972,62.949,11.414,56.343,0.450,0.397,0.117,-491.0,-7.860,-1.442,-9.171,63.753,12.233,54.530,0.667,0.787,0.258,-491.0,10.783,90523.562,941.73,10.786,90523.718,941.92,15612,-7.972,941.92,-101374664.0,2.296,1.935,0.0,0.0,0.0,4.131,-4.694
15648,2,15648,36,-8.486,-1.544,-8.687,63.460,11.701,54.986,0.612,0.651,0.201,-491.0,-8.90,-1.773,-10.678,64.864,12.204,50.789,0.938,-1.392,0.379,-491.0,10.786,90522.421,940.933,10.791,90524.921,940.487,15648,-8.687,940.487,-101674536.0,-16.816,3.18,0.0,0.0,0.0,4.131,-5.115
15691,2,15691,43,-8.461,-1.533,-9.231,64.370,12.46,53.86,0.703,-1.53,0.225,-491.0,-9.497,-1.457,-10.247,67.129,12.817,47.807,0.722,-2.33,0.201,-491.0,10.787,90524.648,940.870,10.791,90530.500,940.789,15691,-9.231,940.789,-102059792.0,7.33,1.825,0.0,0.0,0.0,4.131,-5.435
15727,2,15727,36,-9.11,-2.604,-8.840,65.308,12.432,50.587,0.742,-1.317,0.253,-491.0,-10.947,-6.632,-5.653,67.334,12.730,44.636,0.655,-1.637,0.245,-491.0,10.787,90525.562,940.688,10.786,90528.242,940.74,15727,-8.840,940.74,-102385096.0,-19.861,3.474,0.0,0.0,0.0,4.131,-5.205
15770,2,15770,43,-9.263,-2.579,-8.799,66.366,12.543,47.760,0.760,-1.294,0.227,-491.0,-9.920,-1.593,-8.245,68.751,12.730,41.40,0.817,0.622,0.50,-491.0,10.789,90526.671,940.627,10.791,90525.976,940.693,15770,-8.799,940.693,-102764360.0,14.385,1.698,0.0,0.0,0.0,4.131,-5.181
15806,2,15806,36,-9.623,-2.594,-8.833,67.392,12.715,44.849,0.783,-1.101,0.175,-491.0,-9.662,-1.514,-9.343,68.883,13.95,39.973,0.784,0.177,0.2,-491.0,10.791,90527.789,940.547,10.796,90529.296,940.693,15806,-8.833,940.693,-103081752.0,0.0,2.0,0.0,0.0,0.0,4.131,-5.201
15849,2,15849,43,-10.110,-2.597,-8.754,68.0,13.10,42.657,0.663,0.688,0.87,-491.0,-10.523,-1.787,-10.283,67.904,13.680,39.827,0.336,0.675,0.60,-491.0,10.792,90528.210,940.591,10.796,90527.39,940.706,15849,-8.754,940.706,-103459904.0,0.308,1.990,0.0,0.0,0.0,4.131,-5.154
15896,2,15896,47,-10.127,-2.554,-8.687,68.73,13.192,41.192,0.564,0.45,0.23,-491.0,-9.583,-1.241,-9.910,67.494,13.724,40.485,0.230,1.180,0.116,-491.0,10.793,90527.304,940.528,10.796,90525.976,940.474,15896,-8.687,940.474,-103869792.0,-4.946,2.174,0.0,0.0,0.0,4.131,-5.115
15938,2,15938,42,-9.841,-1.533,-9.228,68.47,13.589,40.684,0.482,0.490,0.68,-491.0,-9.518,-1.529,-8.359,67.202,14.717,42.92,0.244,1.41,0.216,-491.0,10.794,90526.859,940.693,10.791,90525.976,940.899,15938,-9.228,940.899,-104246024.0,10.126,1.767,0.0,0.0,0.0,4.131,-5.433
15975,2,15975,37,-9.695,-1.336,-9.219,67.582,13.878,41.26,0.410,0.744,0.83,-491.0,-9.188,0.610,-8.202,66.427,14.177,42.750,0.455,0.649,0.24,-491.0,10.795,90526.125,940.797,10.796,90522.375,941.215,15975,-9.219,941.215,-104587320.0,8.530,1.796,0.0,0.0,0.0,4.131,-5.428
16018,2,16018,43,-9.794,-1.373,-9.392,67.65,14.212,41.680,0.360,0.819,0.99,-491.0,-10.157,-1.701,-10.204,66.296,14.761,43.247,0.533,0.550,0.80,-491.0,10.797,90525.437,940.841,10.805,90525.835,940.912,16018,-9.392,940.912,-104987480.0,-7.33,2.267,0.0,0.0,0.0,4.131,-5.530
16059,2,16059,41,-9.386,-1.346,-9.198,66.603,14.580,42.347,0.333,0.881,0.151,-491.0,-8.484,-1.651,-9.314,65.594,15.521,43.159,0.204,0.983,0.318,-491.0,10.797,90524.953,940.844,10.796,90524.632,940.719,16059,-9.198,940.719,-105368584.0,-4.716,2.164,0.0,0.0,0.0,4.131,-5.416
16096,2,16096,37,-9.207,-1.540,-8.898,65.808,15.127,43.40,0.273,0.824,0.212,-491.0,-8.685,-2.210,-8.410,63.519,16.457,43.949,0.71,0.897,0.421,-491.0,10.798,90525.140,940.973,10.800,90526.898,941.119,16096,-8.898,941.119,-105703376.0,10.809,1.755,0.0,0.0,0.0,4.131,-5.239
16138,2,16138,42,-9.188,-1.595,-9.120,64.367,15.317,43.455,0.207,0.848,0.237,-491.0,-9.425,-1.801,-9.472,59.997,15.667,44.168,0.83,1.159,0.344,-491.0,10.801,90524.179,940.997,10.809,90521.171,941.22,16138,-9.120,941.22,-106081776.0,-2.309,2.74,0.0,0.0,0.0,4.131,-5.370
16174,2,16174,36,-9.432,-1.764,-9.241,62.885,15.790,44.256,0.71,1.61,0.416,-491.0,-10.408,-1.457,-8.805,59.17,16.544,46.755,0.226,1.715,0.916,-491.0,10.805,90524.390,940.876,10.814,90523.429,940.609,16174,-9.241,940.609,-106412296.0,-11.461,2.523,0.0,0.0,0.0,4.137,-5.441
16216,2,16216,42,-9.228,-1.715,-8.691,60.999,16.185,45.334,0.127,1.405,0.641,-491.0,-9.138,-1.457,-7.455,56.869,16.734,48.640,0.456,2.273,1.207,-491.0,10.808,90522.320,940.920,10.819,90515.445,941.132,16216,-8.691,941.132,-106788888.0,12.433,1.728,0.0,0.0,0.0,4.131,-5.117
16252,2,16252,36,-9.158,-2.71,-7.705,58.801,16.682,47.76,0.287,1.510,0.929,-491.0,-8.133,-3.431,-4.383,54.603,18.6,51.870,0.599,1.507,1.757,-491.0,10.811,90520.242,941.5,10.814,90514.242,941.144,16252,-7.705,941.144,-107084032.0,0.352,1.989,0.0,0.0,0.0,4.131,-4.536
16295,2,16295,43,-8.961,-2.341,-7.57,56.539,17.117,49.73,0.366,1.407,0.956,-491.0,-7.702,-3.560,-5.172,52.206,18.634,53.931,0.462,0.382,0.558,-491.0,10.814,90518.828,941.112,10.814,90519.828,941.654,16295,-7.57,941.654,-107401440.0,11.863,1.737,0.0,0.0,0.0,4.125,-4.155
16331,2,16331,36,-8.782,-2.674,-6.428,55.27,17.570,50.952,0.376,1.72,0.918,-491.0,-8.528,-3.467,-6.328,52.440,17.933,53.566,0.134,0.515,0.151,-491.0,10.816,90518.796,941.200,10.819,90521.31,941.460,16331,-6.428,941.460,-107644200.0,-5.401,2.193,0.0,0.0,0.0,4.131,-3.785
16373,2,16373,42,-8.380,-3.70,-5.940,53.569,17.918,52.309,0.367,0.689,0.811,-491.0,-8.398,-3.438,-6.364,51.724,18.284,53.536,0.185,0.201,0.383,-491.0,10.820,90517.171,941.288,10.832,90515.304,941.48,16373,-5.940,941.48,-107903968.0,-9.797,2.416,0.0,0.0,0.0,4.131,-3.497
16442,2,16442,69,-7.890,-3.135,-5.610,52.508,18.205,53.344,0.313,0.115,0.579,-491.0,-6.690,-1.780,-5.804,51.563,18.167,53.814,0.182,0.594,0.44,-491.0,10.821,90517.437,941.288,10.828,90516.789,941.132,16442,-5.610,941.132,-108302488.0,1.204,1.965,0.0,0.0,0.0,4.131,-3.303
16483,2,16483,41,-7.566,-3.72,-6.105,52.376,18.439,53.393,0.100,0.368,0.223,-491.0,-6.510,-3.115,-6.859,53.946,19.175,52.119,0.463,0.912,0.21,-491.0,10.820,90519.273,941.120,10.805,90523.429,940.306,16483,-6.105,940.306,-108542680.0,-20.126,3.523,0.0,0.0,0.0,4.131,-3.595
16519,2,16519,36,-7.668,-3.257,-6.433,52.797,18.459,52.692,0.91,0.672,0.99,-491.0,-8.212,-4.486,-6.809,54.311,18.737,50.423,0.496,-1.139,0.62,-491.0,10.820,90519.304,940.916,10.814,90519.968,940.635,16519,-6.433,940.635,-108768384.0,9.134,1.784,0.0,0.0,0.0,4.131,-3.787
16567,2,16567,48,-8.49,-3.205,-6.665,53.572,18.669,51.423,0.239,0.875,0.22,-491.0,-10.437,-3.208,-7.491,56.313,18.985,47.223,0.607,-1.529,0.456,-491.0,10.821,90519.546,940.831,10.828,90522.226,941.35,16567,-6.665,941.35,-109082760.0,8.321,1.800,0.0,0.0,0.0,4.131,-3.924
16603,2,16603,36,-8.16,-3.250,-7.172,54.606,18.924,49.932,0.411,0.920,0.148,-491.0,-8.233,-3.661,-8.898,56.898,19.555,46.83,0.674,0.425,0.243,-491.0,10.818,90522.257,940.749,10.814,90528.867,940.635,16603,-7.172,940.635,-109331856.0,-11.94,2.498,0.0,0.0,0.0,4.137,-4.223
16646,2,16646,43,-8.592,-3.732,-7.756,55.855,19.310,48.129,0.457,0.738,0.134,-491.0,-9.568,-4.192,-8.726,57.804,20.96,44.796,0.44,0.316,0.110,-491.0,10.817,90522.625,940.608,10.823,90518.625,940.430,16646,-7.756,940.430,-109652840.0,-4.777,2.167,0.0,0.0,0.0,4.131,-4.567
16682,2,16682,36,-9.99,-3.793,-7.619,56.471,19.421,46.658,0.258,0.604,0.112,-491.0,-9.44,-3.416,-6.170,57.30,19.731,44.767,0.533,0.242,0.89,-491.0,10.821,90523.679,940.572,10.828,90528.726,940.127,16682,-7.619,940.127,-109929608.0,-8.400,2.336,0.0,0.0,0.0,4.131,-4.486
16725,2,16725,43,-9.446,-3.557,-7.818,56.977,19.532,45.606,0.52,0.363,0.104,-491.0,-9.949,-3.309,-7.807,56.840,19.292,45.162,0.532,0.62,0.23,-491.0,10.824,90525.671,940.572,10.828,90529.929,940.635,16725,-7.818,940.635,-110261520.0,11.811,1.738,0.0,0.0,0.0,4.137,-4.603
16761,2,16761,36,-8.915,-3.445,-7.686,57.18,19.467,45.209,0.182,0.108,0.37,-491.0,-7.781,-2.648,-6.830,56.518,18.664,45.235,0.565,0.256,0.121,-491.0,10.824,90524.953,940.267,10.828,90518.625,939.508,16761,-7.686,939.508,-110540616.0,-31.321,17.566,0.0,0.0,0.0,4.131,-4.525
16804,2,16804,43,-8.918,-3.158,-7.590,57.71,19.263,45.103,0.323,0.168,0.32,-491.0,-8.248,-2.225,-8.417,57.161,18.532,45.556,0.29,0.720,0.217,-491.0,10.827,90525.406,940.146,10.828,90531.132,940.30,16804,-7.590,940.30,-110869072.0,12.144,1.732,0.0,0.0,0.0,4.131,-4.469
16846,2,16846,42,-8.655,-2.913,-7.442,57.18,18.895,44.966,0.277,0.405,0.87,-491.0,-8.255,-2.964,-7.986,57.541,18.254,44.109,0.275,0.870,0.164,-491.0,10.827,90526.343,940.41,10.823,90523.289,939.907,16846,-7.442,939.907,-111184768.0,-2.925,2.96,0.0,0.0,0.0,4.131,-4.382
16882,2,16882,36,-8.151,-2.667,-7.890,57.407,18.658,44.507,0.31,0.607,0.185,-491.0,-6.525,-2.189,-8.410,58.973,18.547,42.472,0.695,-1.252,0.398,-491.0,10.825,90526.828,940.41,10.819,90531.132,940.127,16882,-7.890,940.127,-111460760.0,6.120,1.844,0.0,0.0,0.0,4.131,-4.645
16956,2,16956,74,-8.528,-2.717,-8.611,58.117,18.547,42.747,0.110,0.694,0.191,-491.0,-11.830,-3.560,-11.410,60.391,18.737,36.363,0.176,0.372,0.56,-491.0,10.823,90526.242,940.36,10.819,90527.39,940.609,16956,-8.611,940.609,-112071320.0,6.513,1.836,0.0,0.0,0.0,4.131,-5.70
16993,2,16993,37,-8.662,-2.750,-9.261,58.868,18.555,40.982,0.201,0.582,0.175,-491.0,-8.456,-2.813,-10.82,60.274,18.707,36.407,0.108,0.306,0.39,-491.0,10.819,90528.585,940.53,10.805,90530.359,939.591,16993,-9.261,939.591,-112401968.0,-27.512,6.726,0.0,0.0,0.0,4.131,-5.453
17035,2,17035,42,-8.865,-2.871,-9.564,59.546,18.503,39.29,0.216,0.511,0.166,-491.0,-9.260,-2.828,-9.932,60.552,18.269,35.793,0.43,0.369,0.173,-491.0,10.814,90528.609,940.150,10.805,90531.273,940.513,17035,-9.564,940.513,-112797312.0,21.942,1.603,0.0,0.0,0.0,4.131,-5.631
17071,2,17071,36,-9.179,-2.961,-10.72,60.242,18.494,37.380,0.127,0.298,0.145,-491.0,-9.827,-3.416,-10.527,61.20,18.211,35.866,0.170,0.194,0.59,-491.0,10.810,90529.335,940.210,10.805,90526.898,940.210,17071,-10.72,940.210,-113150784.0,-8.416,2.337,0.0,0.0,0.0,4.131,-5.930
17115,2,17115,44,-9.711,-3.56,-10.335,60.602,18.392,36.83,0.59,0.15,0.70,-497.399,-9.181,-2.663,-9.723,60.771,18.35,35.983,0.239,0.318,0.24,-523.0,10.809,90528.703,940.224,10.809,90527.953,940.197,17115,-10.335,940.197,-113599768.0,0.288,2.8,0.0,0.0,0.0,4.131,-6.85
17151,2,17151,36,-9.313,-2.877,-10.91,60.610,18.181,36.147,0.142,0.149,0.73,-497.399,-9.841,-2.663,-10.190,60.435,17.684,36.685,0.240,0.299,0.70,-491.0,10.807,90528.203,940.62,10.809,90524.492,939.797,17151,-10.91,939.797,-113967448.0,-11.108,2.499,0.0,0.0,0.0,4.137,-5.941
17193,2,17193,42,-10.67,-2.911,-10.55,60.590,17.883,36.360,0.173,0.232,0.102,-503.799,-12.224,-2.986,-9.903,60.172,17.217,37.474,0.262,0.720,0.186,-523.0,10.808,90526.789,940.125,10.809,90523.289,939.907,17193,-10.55,939.907,-114390536.0,2.609,1.927,0.0,0.0,0.0,4.137,-5.920
17230,2,17230,37,-10.380,-2.717,-9.891,60.441,17.474,37.190,0.298,0.811,0.245,-510.200,-10.825,-1.859,-9.113,59.807,16.223,39.944,0.582,2.524,0.886,-523.0,10.809,90527.656,939.960,10.814,90535.648,939.688,17230,-9.891,939.688,-114759560.0,-5.925,2.216,0.0,0.0,0.0,4.131,-5.824
17273,2,17273,43,-9.830,-2.376,-9.151,60.93,16.860,38.821,0.298,1.148,0.267,-510.200,-7.77,-1.708,-6.823,59.280,15.141,44.22,0.169,1.881,0.171,-491.0,10.812,90529.437,940.1,10.819,90535.796,940.416,17273,-9.151,940.416,-115168984.0,16.935,1.663,0.0,0.0,0.0,4.131,-5.388
17309,2,17309,36,-9.502,-1.830,-8.326,59.652,16.229,40.798,0.287,1.269,0.275,-503.799,-7.544,0.64,-5.603,58.564,14.878,45.863,0.181,0.920,0.62,-491.0,10.814,90529.648,939.880,10.819,90529.15,939.591,17309,-8.326,939.591,-115483584.0,-22.905,4.196,0.0,0.0,0.0,4.137,-4.902
17354,2,17354,45,-9.287,-1.666,-7.812,59.137,15.518,42.890,0.339,1.464,0.239,-503.799,-8.764,-1.844,-7.620,57.863,14.133,47.149,0.500,1.273,0.111,-491.0,10.815,90530.335,939.921,10.814,90527.953,940.3,17354,-7.812,940.3,-115846728.0,9.156,1.784,0.0,0.0,0.0,4.131,-4.600
17390,2,17390,36,-8.480,-1.480,-6.902,58.605,14.878,45.363,0.412,1.545,0.175,-497.399,-8.190,-2.53,-5.352,57.512,14.16,49.839,0.626,1.126,0.133,-491.0,10.817,90532.117,939.940,10.819,90532.187,940.3,17390,-6.902,940.3,-116111608.0,0.0,2.0,0.0,0.0,0.0,4.131,-4.64
17468,2,17468,78,-7.837,-1.475,-6.374,58.70,14.443,48.50,0.357,1.127,0.33,-491.0,-7.609,-1.837,-6.472,57.132,14.45,53.376,0.310,0.433,0.156,-491.0,10.817,90531.789,939.998,10.814,90533.960,939.978,17468,-6.374,939.978,-116629416.0,0.325,2.9,0.0,0.0,0.0,4.131,-3.753
17504,2,17504,36,-7.904,-1.445,-6.362,57.582,14.174,50.17,0.354,0.663,0.64,-491.0,-7.415,-1.557,-6.766,56.840,13.797,53.858,0.154,0.438,0.15,-491.0,10.809,90530.687,939.993,10.782,90530.359,940.391,17504,-6.362,940.391,-116858688.0,11.461,1.744,0.0,0.0,0.0,4.131,-3.746
17547,2,17547,43,-8.245,-1.939,-6.637,57.553,13.876,51.452,0.330,0.321,0.36,-491.0,-9.245,-2.404,-6.974,58.418,13.387,53.40,0.58,0.786,0.201,-491.0,10.805,90530.296,940.233,10.796,90527.39,940.789,17547,-6.637,940.789,-117138192.0,9.275,1.782,0.0,0.0,0.0,4.131,-3.907
17588,2,17588,41,-8.430,-1.928,-6.426,57.781,13.697,52.648,0.273,0.26,0.34,-491.0,-9.690,-1.787,-6.565,59.3,13.241,53.127,0.219,0.203,0.99,-491.0,10.800,90529.906,940.289,10.791,90525.976,940.281,17588,-6.426,940.281,-117405984.0,-12.402,2.592,0.0,0.0,0.0,4.131,-3.783
17624,2,17624,36,-8.365,-1.781,-6.680,58.73,13.686,53.285,0.180,0.148,0.41,-491.0,-7.867,-1.320,-6.622,58.973,13.957,53.25,0.156,0.253,0.169,-491.0,10.795,90529.546,940.429,10.791,90530.359,940.706,17624,-6.680,940.706,-117641896.0,11.813,1.738,0.0,0.0,0.0,4.131,-3.933
17667,2,17667,43,-8.543,-1.864,-6.647,58.582,13.645,53.238,0.134,0.327,0.18,-491.0,-8.499,-2.254,-6.306,59.675,13.840,53.142,0.83,0.465,0.142,-491.0,10.793,90527.15,940.575,10.805,90521.312,940.706,17667,-6.647,940.706,-117928432.0,0.0,2.0,0.0,0.0,0.0,4.137,-3.913
17703,2,17703,36,-9.36,-1.961,-6.591,59.85,13.659,53.63,0.131,0.332,0.32,-491.0,-9.877,-2.38,-6.486,59.353,13.870,52.981,0.137,0.462,0.89,-491.0,10.798,90525.625,940.597,10.805,90523.429,940.500,17703,-6.591,940.500,-118166720.0,-5.739,2.207,0.0,0.0,0.0,4.131,-3.880
17745,2,17745,42,-8.809,-1.752,-6.632,59.310,13.683,53.156,0.159,0.106,0.39,-491.0,-8.111,-1.363,-7.182,59.543,13.504,53.507,0.197,0.342,0.160,-491.0,10.801,90526.15,940.684,10.814,90529.15,941.228,17745,-6.632,941.228,-118444424.0,17.339,1.657,0.0,0.0,0.0,4.137,-3.905
17781,2,17781,36,-8.506,-1.823,-6.826,59.190,13.712,53.227,0.182,0.9,0.19,-491.0,-8.176,-2.139,-7.534,58.403,13.387,53.478,0.335,0.379,0.0,-491.0,10.806,90524.359,940.854,10.814,90517.710,941.132,17781,-6.826,941.132,-118686696.0,-2.678,2.87,0.0,0.0,0.0,4.131,-4.19
17831,2,17831,50,-8.998,-2.27,-6.612,59.143,13.636,53.572,0.243,0.22,0.87,-491.0,-10.329,-2.340,-5.553,58.740,13.577,54.750,0.465,0.93,0.367,-491.0,10.810,90522.734,941.0,10.814,90522.226,941.435,17831,-6.612,941.435,-119022680.0,6.60,1.846,0.0,0.0,0.0,4.131,-3.893
17867,2,17867,36,-9.488,-1.817,-6.592,58.959,13.300,54.130,0.327,0.135,0.131,-491.0,-10.947,-1.205,-6.206,58.754,12.160,55.933,0.499,0.324,0.360,-491.0,10.812,90522.265,941.85,10.814,90518.914,941.132,17867,-6.592,941.132,-119260376.0,-8.417,2.337,0.0,0.0,0.0,4.131,-3.881
17910,2,17910,43,-9.479,-1.724,-6.349,59.23,12.712,54.896,0.327,0.129,0.148,-491.0,-9.834,-1.572,-5.273,59.675,10.932,56.810,0.139,0.492,0.175,-491.0,10.814,90521.562,941.233,10.814,90519.968,941.241,17910,-6.349,941.241,-119538640.0,2.550,1.928,0.0,0.0,0.0,4.131,-3.738
17980,2,17980,70,-9.323,-1.786,-6.348,59.44,12.709,55.434,0.210,0.122,0.53,-491.0,-7.329,-1.672,-7.175,59.646,13.490,56.197,0.389,0.917,0.634,-491.0,10.814,90520.54,941.231,10.814,90521.453,941.215,17980,-6.348,941.215,-119983088.0,0.378,2.11,0.0,0.0,0.0,4.131,-3.738
18021,2,18021,41,-9.469,-1.797,-6.447,59.336,12.987,55.518,0.56,0.514,0.117,-491.0,-8.908,-2.196,-8.29,59.865,14.776,53.902,0.434,-1.581,0.855,-491.0,10.811,90520.320,941.247,10.800,90519.54,941.215,18021,-6.447,941.215,-120245408.0,0.0,2.0,0.0,0.0,0.0,4.131,-3.796
18057,2,18057,36,-9.188,-1.750,-7.33,59.693,13.364,54.998,0.126,0.787,0.308,-491.0,-8.922,-2.103,-8.481,60.523,15.463,52.148,0.451,-1.271,0.588,-491.0,10.809,90520.796,941.22,10.800,90524.632,940.306,18057,-7.33,940.306,-120488064.0,-25.232,5.115,0.0,0.0,0.0,4.137,-4.141
18100,2,18100,43,-8.780,-1.998,-7.491,60.140,14.378,53.735,0.367,-1.103,0.444,-491.0,-8.908,-2.447,-8.496,60.990,17.231,49.619,0.704,-1.253,0.320,-491.0,10.807,90520.593,940.879,10.805,90517.851,940.416,18100,-7.491,940.416,-120800344.0,2.549,1.928,0.0,0.0,0.0,4.131,-4.410
18136,2,18136,36,-8.724,-2.209,-8.235,60.423,15.811,51.943,0.527,-1.147,0.501,-491.0,-9.554,-2.627,-8.991,61.93,18.94,47.851,0.660,0.714,0.108,-491.0,10.805,90522.851,940.675,10.805,90531.273,940.223,18136,-8.235,940.223,-121083416.0,-5.355,2.191,0.0,0.0,0.0,4.131,-4.848
18178,2,18178,42,-9.131,-2.414,-8.582,60.871,16.714,50.38,0.510,0.980,0.330,-491.0,-9.360,-2.699,-8.912,61.882,18.6,46.667,0.304,0.80,0.222,-491.0,10.806,90524.820,940.598,10.819,90531.273,940.829,18178,-8.582,940.829,-121436584.0,14.414,1.698,0.0,0.0,0.0,4.131,-5.53
18214,2,18214,36,-9.164,-2.317,-8.738,61.455,17.427,48.564,0.500,0.693,0.77,-491.0,-9.73,-1.708,-8.812,62.788,18.342,46.536,0.381,0.149,0.409,-491.0,10.809,90526.85,940.441,10.819,90525.406,940.430,18214,-8.738,940.430,-121748368.0,-11.77,2.497,0.0,0.0,0.0,4.131,-5.145
18258,2,18258,44,-9.39,-2.242,-8.964,61.911,18.23,47.351,0.512,0.439,0.51,-491.0,-8.298,-1.730,-9.609,62.803,18.444,46.83,0.514,0.0,0.56,-491.0,10.814,90525.796,940.548,10.823,90523.148,940.841,18258,-8.964,940.841,-122137840.0,9.352,1.780,0.0,0.0,0.0,4.137,-5.278
18294,2,18294,36,-8.951,-2.136,-9.207,62.320,18.374,46.521,0.467,0.191,0.128,-491.0,-8.470,-1.916,-9.709,63.37,18.985,45.469,0.476,0.10,0.63,-491.0,10.819,90527.93,940.674,10.828,90524.351,941.48,18294,-9.207,941.48,-122464928.0,5.754,1.852,0.0,0.0,0.0,4.131,-5.421
18336,2,18336,42,-8.750,-1.948,-9.344,62.794,18.520,45.878,0.438,0.13,0.163,-491.0,-8.549,-1.686,-9.680,63.460,18.824,44.636,0.518,0.171,0.67,-491.0,10.823,90525.921,940.900,10.828,90525.406,941.351,18336,-9.344,941.351,-122854520.0,7.213,1.822,0.0,0.0,0.0,4.131,-5.502
18373,2,18373,37,-8.606,-1.821,-9.583,62.996,18.766,45.439,0.468,0.88,0.132,-491.0,-8.642,-2.67,-10.104,62.890,19.234,44.475,0.451,0.432,0.67,-491.0,10.824,90524.78,940.922,10.823,90522.85,940.938,18373,-9.583,940.938,-123204688.0,-11.167,2.503,0.0,0.0,0.0,4.137,-5.642
18415,2,18415,42,-8.522,-1.931,-9.776,62.964,19.11,44.907,0.421,0.165,0.45,-491.0,-8.650,-2.254,-9.781,62.627,19.570,43.876,0.143,0.233,0.27,-491.0,10.825,90523.898,940.880,10.823,90524.492,940.223,18415,-9.776,940.223,-123611248.0,-17.24,3.43,0.0,0.0,0.0,4.137,-5.756
18467,2,18467,52,-8.871,-2.111,-9.731,62.870,19.187,44.448,0.291,0.225,0.20,-491.0,-10.42,-2.634,-9.379,62.335,19.321,43.788,0.130,0.299,0.67,-491.0,10.824,90524.640,940.895,10.819,90526.898,940.912,18467,-9.731,940.912,-124118456.0,13.252,1.715,0.0,0.0,0.0,4.131,-5.729
18503,2,18503,36,-8.981,-2.235,-9.565,62.797,19.295,44.168,0.170,0.285,0.27,-491.0,-9.23,-2.533,-8.883,62.671,19.526,44.66,0.132,0.290,0.178,-491.0,10.820,90523.796,940.788,10.805,90520.109,940.513,18503,-9.565,940.513,-124465800.0,-11.93,2.498,0.0,0.0,0.0,4.131,-5.632
18547,2,18547,44,-9.316,-2.555,-9.491,62.408,19.406,44.142,0.4,0.181,0.160,-491.0,-10.222,-3.287,-9.307,61.517,19.380,44.504,0.309,0.349,0.598,-491.0,10.816,90523.859,940.557,10.809,90525.695,940.197,18547,-9.491,940.197,-124885056.0,-7.174,2.274,0.0,0.0,0.0,4.137,-5.588
18583,2,18583,36,-9.784,-2.780,-9.245,61.952,19.441,44.48,0.185,0.86,0.301,-491.0,-10.983,-3.194,-8.876,60.610,19.409,44.7,0.498,0.39,0.637,-491.0,10.813,90524.578,940.494,10.809,90525.695,940.623,18583,-9.245,940.623,-125222320.0,11.813,1.738,0.0,0.0,0.0,4.131,-5.443
18625,2,18625,42,-10.2,-2.910,-8.846,61.432,19.447,44.180,0.340,0.24,0.369,-491.0,-9.741,-2.900,-7.785,60.26,19.599,44.533,0.631,0.78,0.364,-491.0,10.810,90524.609,940.673,10.809,90524.632,941.119,18625,-8.846,941.119,-125602264.0,11.817,1.738,0.0,0.0,0.0,4.131,-5.208
18661,2,18661,36,-10.102,-2.835,-8.502,60.900,19.447,44.451,0.391,0.251,0.343,-491.0,-10.545,-2.261,-7.656,59.675,19.321,45.147,0.384,-1.81,0.62,-491.0,10.809,90524.601,940.675,10.809,90526.898,940.926,18661,-8.502,940.926,-125914544.0,-5.371,2.192,0.0,0.0,0.0,4.137,-5.6
18704,2,18704,43,-10.212,-2.862,-8.504,60.268,19.517,44.542,0.407,0.457,0.349,-491.0,-9.568,-2.670,-8.898,59.514,19.877,44.519,0.215,0.737,0.207,-491.0,10.809,90526.835,940.758,10.809,90531.273,940.926,18704,-8.504,940.926,-126280192.0,0.0,2.0,0.0,0.0,0.0,4.131,-5.7
18740,2,18740,36,-9.896,-2.977,-8.609,59.894,19.608,44.624,0.477,0.401,0.235,-491.0,-8.642,-3.862,-9.831,59.646,19.833,44.913,0.657,0.70,0.30,-491.0,10.809,90527.46,940.884,10.809,90526.750,940.829,18740,-8.609,940.829,-126588256.0,-2.694,2.87,0.0,0.0,0.0,4.131,-5.69
18782,2,18782,42,-9.886,-3.27,-8.558,59.716,19.532,45.13,0.486,0.603,0.65,-491.0,-10.932,-3.445,-8.618,59.719,19.29,45.951,0.541,-1.47,0.214,-491.0,10.810,90527.500,940.884,10.814,90527.953,940.623,18782,-8.558,940.623,-126948784.0,-4.904,2.172,0.0,0.0,0.0,4.131,-5.38
18819,2,18819,37,-10.545,-3.237,-9.162,59.643,19.432,45.203,0.470,0.732,0.12,-491.0,-13.36,-3.948,-10.807,59.660,19.102,45.483,0.551,0.725,0.23,-491.0,10.810,90527.234,940.765,10.809,90523.289,940.526,18819,-9.162,940.526,-127276616.0,-2.621,2.85,0.0,0.0,0.0,4.131,-5.394
18862,2,18862,43,-10.46,-3.528,-9.960,59.424,19.394,45.407,0.576,0.444,0.40,-491.0,-8.54,-3.718,-11.647,58.579,19.131,46.170,0.917,0.361,0.201,-491.0,10.812,90527.421,940.724,10.819,90527.812,940.719,18862,-9.960,940.719,-127687768.0,4.496,1.881,0.0,0.0,0.0,4.131,-5.864
18898,2,18898,36,-9.887,-3.441,-10.570,59.465,18.859,46.191,0.824,0.335,0.239,-491.0,-8.772,-2.232,-11.949,59.719,17.202,48.436,-1.452,0.193,0.788,-491.0,10.815,90526.484,940.688,10.823,90526.609,940.745,18898,-10.570,940.745,-128057336.0,0.734,1.978,0.0,0.0,0.0,4.137,-6.224
18940,2,18940,42,-10.298,-2.821,-10.410,59.462,17.784,47.220,0.763,0.245,0.552,-491.0,-10.695,0.760,-9.27,59.631,14.454,50.58,0.354,0.379,-1.535,-491.0,10.818,90526.234,940.672,10.823,90525.546,940.745,18940,-10.410,940.745,-128497936.0,0.0,2.0,0.0,0.0,0.0,4.131,-6.129
19010,2,19010,70,-10.51,-1.768,-10.882,59.655,16.65,48.292,0.575,0.120,0.730,-491.0,-9.698,1.816,-10.980,60.684,10.435,51.315,0.398,0.779,-1.102,-491.0,10.820,90526.0,940.589,10.823,90526.750,940.210,19010,-10.882,940.210,-129243176.0,-7.648,2.297,0.0,0.0,0.0,4.131,-6.407
19051,2,19051,41,-9.80,0.868,-10.352,60.93,14.13,49.590,0.335,0.366,0.736,-491.0,-8.183,0.552,-8.158,61.853,8.842,51.973,0.649,0.506,0.55,-491.0,10.820,90526.484,940.548,10.814,90525.695,940.320,19051,-10.352,940.320,-129678496.0,2.673,1.925,0.0,0.0,0.0,4.137,-6.95
19087,2,19087,36,-9.47,0.17,-9.739,60.876,11.993,50.640,0.139,0.305,0.788,-491.0,-7.889,0.710,-8.582,62.496,9.32,51.417,1.456,0.54,0.458,-491.0,10.820,90524.890,940.658,10.814,90519.828,941.267,19087,-9.739,941.267,-130040160.0,26.319,1.558,0.0,0.0,0.0,4.137,-5.734
19136,2,19136,49,-10.81,0.202,-9.372,61.610,10.464,50.856,0.692,0.326,0.808,-491.0,-13.940,-1.306,-10.111,63.387,9.558,49.517,1.310,0.87,0.889,-491.0,10.820,90523.523,940.677,10.828,90519.828,940.841,19136,-9.372,940.841,-130508400.0,-8.690,2.352,0.0,0.0,0.0,4.131,-5.518
19178,2,19178,42,-9.660,0.393,-9.379,62.636,9.321,50.347,1.149,0.7,0.741,-491.0,-8.592,0.193,-9.63,64.761,8.740,47.515,1.930,-1.291,-1.200,-491.0,10.820,90523.710,940.696,10.823,90526.468,940.841,19178,-9.379,940.841,-130902176.0,0.0,2.0,0.0,0.0,0.0,4.137,-5.522
19214,2,19214,36,-9.429,0.192,-9.113,63.735,8.874,48.903,1.600,0.556,0.784,-491.0,-8.542,-1.112,-9.652,66.179,8.199,44.95,2.656,-1.962,-1.318,-491.0,10.821,90523.226,940.597,10.828,90524.351,939.714,19214,-9.113,939.714,-131235048.0,-31.305,17.441,0.0,0.0,0.0,4.137,-5.366
19257,2,19257,43,-9.264,0.244,-10.909,65.249,7.839,46.255,1.652,-1.194,-1.772,-491.0,-7.357,2.734,-17.139,69.424,3.668,38.731,0.908,-2.687,-4.998,-491.0,10.823,90524.78,940.682,10.823,90529.929,940.745,19257,-10.909,940.745,-131665552.0,23.979,1.581,0.0,0.0,0.0,4.131,-6.423
19293,2,19293,36,-9.920,0.974,-12.5,67.342,6.290,42.522,2.63,-1.765,-1.897,-491.0,-11.169,4.364,-14.59,72.961,1.286,32.753,3.508,-2.799,-1.83,-491.0,10.825,90523.171,940.412,10.823,90515.304,939.920,19293,-12.5,939.920,-132078024.0,-22.920,4.201,0.0,0.0,0.0,4.137,-7.68
19335,2,19335,42,-9.131,1.612,-12.677,68.775,4.150,38.363,2.524,-1.707,-1.797,-491.0,-9.992,1.880,-13.471,70.549,-1.140,28.719,3.618,0.204,0.386,-491.0,10.823,90523.867,940.347,10.819,90523.289,940.513,19335,-12.677,940.513,-132596352.0,14.112,1.702,0.0,0.0,0.0,4.137,-7.464
19371,2,19371,36,-9.69,1.896,-13.465,70.23,1.938,34.712,2.735,-1.336,-1.646,-491.0,-8.283,1.615,-13.4,71.2,-2.323,29.260,2.985,0.563,0.446,-491.0,10.820,90524.828,940.262,10.809,90531.273,940.416,19371,-13.465,940.416,-133066912.0,-2.694,2.87,0.0,0.0,0.0,4.131,-7.928
19415,2,19415,44,-8.998,2.749,-13.463,70.955,0.403,31.978,2.373,0.862,-1.561,-491.0,-8.190,3.151,-9.644,70.841,-3.507,30.429,0.848,0.404,0.894,-491.0,10.818,90526.31,940.320,10.814,90530.359,940.3,19415,-13.463,940.3,-133659352.0,-9.375,2.391,0.0,0.0,0.0,4.137,-7.927
19451,2,19451,36,-9.208,2.849,-11.753,71.251,-2.312,30.342,2.249,0.355,0.743,-491.0,-8.405,3.237,-8.589,70.900,-5.875,30.546,0.286,0.150,0.907,-491.0,10.814,90526.359,940.268,10.805,90531.562,940.487,19451,-11.753,940.487,-134113272.0,13.434,1.712,0.0,0.0,0.0,4.137,-6.920
19527,2,19527,76,-8.493,2.628,-10.592,70.917,-3.878,30.81,1.543,0.239,0.488,-491.0,-7.594,3.259,-8.252,71.294,-6.547,31.452,0.21,0.174,0.193,-491.0,10.808,90528.820,940.267,10.791,90527.609,939.914,19527,-10.592,939.914,-134962432.0,-7.545,2.292,0.0,0.0,0.0,4.137,-6.236
19564,2,19564,37,-7.686,2.977,-9.686,71.28,-4.975,30.678,0.791,0.178,0.350,-491.0,-5.958,3.625,-8.941,71.104,-6.620,31.701,0.141,0.101,0.303,-491.0,10.794,90530.382,940.270,10.750,90531.70,940.532,19564,-9.686,940.532,-135337600.0,16.705,1.666,0.0,0.0,0.0,4.137,-5.703
19605,2,19605,41,-7.413,3.168,-9.39,70.920,-5.755,31.145,0.91,0.65,0.221,-491.0,-6.920,2.569,-9.766,70.461,-6.226,31.598,0.515,0.1,0.196,-491.0,10.784,90530.578,940.211,10.759,90532.273,940.119,19605,-9.39,940.119,-135721472.0,-10.63,2.432,0.0,0.0,0.0,4.125,-5.322
19641,2,19641,36,-7.478,3.95,-9.151,70.944,-6.275,31.154,0.203,0.91,0.46,-491.0,-8.513,2.785,-10.204,70.958,-6.109,30.473,0.627,0.383,0.20,-491.0,10.772,90532.78,940.193,10.754,90537.851,939.914,19641,-9.151,939.914,-136048896.0,-5.708,2.206,0.0,0.0,0.0,4.131,-5.388
19684,2,19684,43,-7.334,2.875,-9.699,70.976,-6.167,30.923,0.337,0.132,0.208,-491.0,-7.688,2.139,-11.331,71.61,-5.334,29.391,0.384,0.353,0.369,-491.0,10.762,90532.914,940.76,10.754,90535.734,939.900,19684,-9.699,939.900,-136454176.0,0.319,2.9,0.0,0.0,0.0,4.137,-5.711
19720,2,19720,36,-7.703,2.851,-10.423,70.722,-5.729,30.380,0.405,0.210,0.183,-491.0,-9.439,3.136,-11.870,70.23,-4.355,28.734,0.360,0.213,0.68,-491.0,10.752,90533.203,940.111,10.745,90529.93,940.93,19720,-10.423,940.93,-136816384.0,5.371,1.861,0.0,0.0,0.0,4.137,-6.137
19762,2,19762,42,-8.404,2.874,-10.980,69.871,-5.659,29.289,0.482,0.223,0.183,-491.0,-9.461,3.739,-11.726,66.851,-6.270,26.249,0.525,0.167,0.304,-491.0,10.750,90533.78,939.958,10.736,90530.437,939.765,19762,-10.980,939.765,-137265856.0,-7.816,2.306,0.0,0.0,0.0,4.131,-6.465
19798,2,19798,36,-8.733,3.136,-11.120,69.114,-5.495,28.129,0.591,0.195,0.229,-491.0,-8.563,3.883,-10.470,66.676,-5.407,25.796,-1.61,0.140,0.423,-491.0,10.741,90532.492,940.30,10.717,90529.375,940.479,19798,-11.120,940.479,-137663664.0,19.844,1.626,0.0,0.0,0.0,4.131,-6.547
19843,2,19843,45,-8.637,3.406,-11.432,67.798,-5.498,27.266,0.676,0.76,0.399,-491.0,-8.32,4.134,-11.762,64.381,-6.123,26.161,-1.49,0.212,0.831,-491.0,10.731,90530.414,940.119,10.704,90527.398,940.357,19843,-11.432,940.357,-138171104.0,-2.716,2.88,0.0,0.0,0.0,4.131,-6.731
19879,2,19879,36,-8.872,3.461,-11.682,66.673,-5.235,26.410,0.821,0.95,0.655,-491.0,-8.865,2.411,-12.580,65.434,-4.19,25.109,-1.112,0.504,1.649,-491.0,10.719,90528.78,940.188,10.695,90524.78,940.248,19879,-11.682,940.248,-138587168.0,-3.29,2.99,0.0,0.0,0.0,4.131,-6.878
19921,2,19921,42,-8.459,3.299,-11.317,65.948,-4.595,25.793,-1.4,0.244,0.885,-491.0,-7.372,2.325,-10.46,66.398,-1.154,25.650,-1.271,0.532,1.217,-491.0,10.707,90526.890,940.360,10.685,90523.164,940.950,19921,-11.317,940.950,-139070160.0,16.709,1.666,0.0,0.0,0.0,4.137,-6.663
19963,2,19963,42,-8.596,2.836,-11.504,65.589,-3.142,25.872,-1.65,0.277,1.0,-491.0,-10.150,1.428,-12.659,65.54,0.993,26.644,0.831,0.2,0.882,-491.0,10.695,90526.578,940.492,10.676,90528.882,940.428,19963,-11.504,940.428,-139549408.0,-12.420,2.593,0.0,0.0,0.0,4.137,-6.773
20032,2,20032,69,-8.746,2.355,-11.768,64.273,-1.522,25.989,-1.35,0.309,1.83,-491.0,-9.310,1.478,-11.791,60.99,2.689,26.381,0.911,0.299,0.838,-491.0,10.687,90525.390,940.554,10.676,90523.445,940.789,20032,-11.768,940.789,-140352304.0,5.228,1.864,0.0,0.0,0.0,4.137,-6.929
20075,2,20075,43,-9.439,1.718,-11.874,62.835,0.137,25.659,-1.2,0.248,0.961,-491.0,-11.499,0.947,-12.293,57.190,2.177,24.510,0.887,0.90,0.222,-491.0,10.678,90524.414,940.522,10.658,90522.531,940.196,20075,-11.874,940.196,-140860624.0,-13.784,2.705,0.0,0.0,0.0,4.131,-6.991
20112,2,20112,37,-9.563,1.269,-11.741,60.751,1.607,25.232,0.936,0.115,0.825,-491.0,-9.482,0.165,-11.913,55.13,3.332,22.975,0.782,0.163,0.968,-491.0,10.670,90524.742,940.534,10.653,90525.703,940.306,20112,-11.741,940.306,-141297504.0,2.962,1.918,0.0,0.0,0.0,4.137,-6.913
20277,2,20277,165,-9.764,0.618,-12.150,59.32,4.68,24.279,0.520,0.3,0.873,-491.0,-8.377,0.926,-12.92,57.804,11.151,20.885,0.811,0.63,1.456,-491.0,10.665,90526.328,940.593,10.662,90531.70,941.246,20277,-12.150,941.246,-143268528.0,5.699,1.853,0.0,0.0,0.0,4.137,-7.154
20313,2,20313,36,-9.827,0.225,-12.2,57.33,6.501,22.814,0.342,0.104,0.957,-491.0,-10.466,-2.792,-11.920,55.56,13.154,19.321,0.58,0.503,1.299,-491.0,10.653,90526.15,940.660,10.616,90527.328,940.764,20313,-12.2,940.764,-143703280.0,-13.405,2.672,0.0,0.0,0.0,4.137,-7.66
20358,2,20358,45,-10.167,0.924,-11.927,55.653,8.909,21.140,0.209,0.65,1.6,-491.0,-11.11,-2.17,-11.417,53.200,14.732,18.6,0.249,0.492,1.83,-491.0,10.644,90527.7,940.638,10.630,90528.390,940.679,20358,-11.927,940.679,-144241696.0,-1.873,2.59,0.0,0.0,0.0,4.131,-7.22
20394,2,20394,36,-9.866,-1.765,-11.910,54.405,11.724,19.827,0.93,0.104,1.300,-491.0,-9.992,-3.259,-12.207,50.950,16.252,17.947,0.308,0.283,1.696,-491.0,10.642,90527.210,940.803,10.649,90523.585,941.21,20394,-11.910,941.21,-144670784.0,9.487,1.778,0.0,0.0,0.0,4.137,-7.12
20438,2,20438,44,-9.597,-2.511,-11.710,53.139,14.668,18.567,0.67,0.181,1.458,-491.0,-8.140,-3.560,-10.915,48.684,18.50,16.676,0.24,0.549,1.755,-491.0,10.645,90525.828,940.806,10.667,90518.781,940.318,20438,-11.710,940.318,-145190448.0,-15.962,2.918,0.0,0.0,0.0,4.137,-6.895
20474,2,20474,36,-10.156,-3.836,-11.327,50.999,16.392,17.483,0.127,0.203,1.502,-491.0,-11.169,-7.551,-10.176,47.106,19.774,15.463,0.163,0.176,1.678,-491.0,10.647,90526.960,940.642,10.672,90536.726,940.428,20474,-11.327,940.428,-145605136.0,3.44,1.916,0.0,0.0,0.0,4.137,-6.669
20792,2,20792,318,-9.89,-4.660,-11.687,47.576,20.745,13.121,0.28,0.525,1.271,-491.0,-5.132,-6.912,-13.722,37.942,34.916,-2.484,0.839,-2.109,0.141,-491.0,10.660,90527.523,940.656,10.681,90530.156,940.834,20792,-11.687,940.834,-149264592.0,1.275,1.963,0.0,0.0,0.0,4.131,-6.881
20829,2,20829,37,-7.919,-5.837,-11.817,44.893,24.817,8.702,0.239,0.955,0.977,-491.0,-5.161,-7.903,-12.64,39.783,35.92,-4.92,0.807,-1.656,0.385,-491.0,10.655,90528.7,940.634,10.607,90530.789,940.569,20829,-11.817,940.569,-149699440.0,-7.147,2.272,0.0,0.0,0.0,4.137,-6.957
20968,2,20968,139,-6.907,-6.559,-12.730,42.695,28.386,2.204,0.347,0.927,0.681,-491.0,-4.931,-6.869,-16.773,39.959,34.98,-14.542,0.228,0.145,0.219,-491.0,10.651,90530.171,940.560,10.630,90534.390,940.653,20968,-12.730,940.653,-151405472.0,0.606,1.982,0.0,0.0,0.0,4.137,-7.495
21005,2,21005,37,-6.454,-7.197,-13.883,40.838,31.444,-4.212,0.368,0.805,0.431,-491.0,-5.879,-6.747,-16.679,39.403,33.338,-15.404,0.129,0.58,0.502,-491.0,10.642,90530.281,940.613,10.621,90519.351,940.583,21005,-13.883,940.583,-151897824.0,-1.905,2.60,0.0,0.0,0.0,4.137,-8.174
21074,2,21074,69,-5.592,-6.776,-15.38,38.991,34.112,-10.686,0.499,0.626,0.161,-491.0,-6.855,-5.448,-15.954,37.869,33.118,-16.910,0.492,0.721,0.327,-491.0,10.637,90528.828,940.644,10.649,90529.445,940.583,21074,-15.38,940.583,-152895632.0,0.0,2.0,0.0,0.0,0.0,4.137,-8.854
21110,2,21110,36,-5.587,-6.552,-15.739,39.35,33.627,-13.680,0.451,0.78,0.197,-491.0,-5.111,-5.793,-17.225,38.161,32.490,-17.451,0.601,0.629,0.324,-491.0,10.630,90528.421,940.476,10.644,90528.109,939.990,21110,-15.739,939.990,-153449632.0,-16.464,2.975,0.0,0.0,0.0,4.137,-9.267
21153,2,21153,43,-5.521,-6.388,-16.510,38.529,32.768,-16.422,0.418,0.259,0.353,-491.0,-4.831,-7.85,-15.918,37.255,30.795,-17.801,0.640,0.33,0.393,-491.0,10.640,90529.453,940.362,10.658,90535.945,940.3,21153,-16.510,940.3,-154143008.0,0.293,1.991,0.0,0.0,0.0,4.137,-9.721
21195,2,21195,42,-5.243,-5.693,-16.760,37.696,32.11,-17.161,0.468,0.191,0.429,-491.0,-3.538,-3.395,-18.22,35.793,30.312,-18.240,0.478,0.483,0.597,-491.0,10.648,90530.632,940.274,10.667,90540.328,940.209,21195,-16.760,940.209,-154841696.0,4.906,1.871,0.0,0.0,0.0,4.137,-9.868
21231,2,21231,36,-5.238,-5.653,-16.623,36.264,30.970,-17.880,0.568,0.37,0.605,-491.0,-5.857,-6.546,-15.997,32.242,28.135,-19.0,0.629,-1.88,1.385,-491.0,10.659,90534.562,940.223,10.676,90538.984,940.332,21231,-16.623,940.332,-155442608.0,3.411,1.907,0.0,0.0,0.0,4.137,-9.788
21274,2,21274,43,-4.309,-5.546,-17.232,34.866,29.500,-18.386,0.571,0.7,0.803,-491.0,-2.210,-4.910,-18.998,30.882,25.767,-19.438,0.507,0.947,1.314,-491.0,10.664,90533.765,940.132,10.676,90525.421,940.126,21274,-17.232,940.126,-156170512.0,-4.790,2.167,0.0,0.0,0.0,4.137,-10.146
21310,2,21310,36,-4.653,-5.724,-17.5,33.22,27.755,-18.783,0.515,0.260,0.775,-491.0,-6.826,-6.683,-16.91,28.938,23.764,-19.438,0.323,0.714,0.188,-491.0,10.672,90534.546,940.96,10.681,90532.62,939.810,21310,-17.5,939.810,-156786800.0,-8.767,2.356,0.0,0.0,0.0,4.137,-10.12
21352,2,21352,42,-4.525,-5.587,-17.724,31.96,25.951,-19.286,0.597,0.338,0.773,-491.0,-4.192,-6.403,-19.515,27.623,21.777,-20.315,1.49,0.353,0.382,-491.0,10.678,90533.328,940.142,10.690,90529.804,940.235,21352,-17.724,940.235,-157516144.0,10.111,1.767,0.0,0.0,0.0,4.137,-10.436
21388,2,21388,36,-4.516,-5.860,-17.121,28.760,23.703,-19.760,0.581,0.358,1.28,-491.0,-3.495,-4.759,-15.7,24.115,19.73,-20.608,0.397,0.583,1.871,-491.0,10.683,90530.765,940.4,10.690,90527.539,939.520,21388,-17.121,939.520,-158143392.0,-19.860,3.474,0.0,0.0,0.0,4.137,-10.81
21431,2,21431,43,-2.679,-4.45,-15.311,25.805,21.353,-20.8,0.230,0.423,1.69,-491.0,3.330,2.526,-6.945,17.465,16.384,-20.242,-1.126,2.821,1.593,-491.0,10.687,90530.39,939.966,10.699,90535.382,940.138,21431,-15.311,940.138,-158840720.0,14.385,1.698,0.0,0.0,0.0,4.137,-9.15
21467,2,21467,36,-2.165,-1.162,-15.865,22.911,19.523,-20.178,0.354,0.572,0.992,-491.0,0.358,9.504,-21.769,16.413,16.617,-20.286,1.129,1.693,0.927,-491.0,10.691,90532.453,939.930,10.695,90537.500,939.945,21467,-15.865,939.945,-159401920.0,-5.371,2.192,0.0,0.0,0.0,4.137,-9.341
21509,2,21509,42,-1.501,0.803,-16.326,20.570,17.909,-20.397,0.91,0.920,1.102,-491.0,-3.510,-4.888,-18.395,17.231,15.697,-20.534,0.991,1.21,0.737,-491.0,10.695,90531.953,939.957,10.699,90529.515,939.945,21509,-16.326,939.945,-160077952.0,0.0,2.0,0.0,0.0,0.0,4.137,-9.613
21557,2,21557,48,-1.214,-1.42,-15.552,18.766,16.954,-20.391,0.309,0.920,0.987,-491.0,-2.756,-7.594,-15.646,18.605,16.997,-20.286,0.954,0.351,0.191,-491.0,10.695,90532.132,940.83,10.695,90530.718,940.866,21557,-15.552,940.866,-160843056.0,19.187,1.634,0.0,0.0,0.0,4.137,-9.157
21600,2,21600,43,-1.138,-1.504,-15.877,17.752,16.772,-19.953,0.475,1.72,0.648,-491.0,-3.115,-7.70,-16.629,19.44,18.167,-18.415,0.434,0.176,0.174,-491.0,10.697,90533.421,940.149,10.699,90534.39,939.848,21600,-15.877,939.848,-161518800.0,-23.673,4.450,0.0,0.0,0.0,4.137,-9.348
21636,2,21636,36,-2.647,-3.900,-17.482,18.158,17.71,-19.637,0.274,0.627,0.394,-491.0,-4.213,-9.454,-14.971,19.497,17.874,-18.664,0.119,0.597,0.324,-491.0,10.698,90532.953,940.195,10.704,90532.976,940.370,21636,-17.482,940.370,-162119280.0,14.489,1.697,0.0,0.0,0.0,4.137,-10.293
21678,2,21678,42,-3.303,-7.290,-16.335,19.3,17.477,-19.543,0.481,0.383,0.197,-491.0,-2.921,-7.444,-16.33,20.637,18.649,-19.818,0.92,0.470,0.59,-491.0,10.700,90532.710,940.238,10.704,90536.296,940.164,21678,-16.335,940.164,-162829456.0,-4.904,2.172,0.0,0.0,0.0,4.131,-9.618
21720,2,21720,42,-3.227,-7.729,-15.877,19.494,18.18,-19.529,0.193,0.237,0.51,-491.0,-3.129,-7.85,-16.105,19.687,18.401,-20.461,0.448,0.292,0.506,-491.0,10.703,90532.257,940.200,10.713,90527.257,939.752,21720,-15.877,939.752,-163505920.0,-9.810,2.417,0.0,0.0,0.0,4.137,-9.348
21756,2,21756,36,-3.277,-7.570,-16.49,19.824,18.287,-19.845,0.136,0.399,0.124,-491.0,-3.7,-6.798,-16.507,20.257,18.342,-21.864,0.694,0.456,0.558,-491.0,10.706,90531.773,940.18,10.708,90528.320,939.958,21756,-16.49,939.958,-164080608.0,5.722,1.853,0.0,0.0,0.0,4.137,-9.449
21798,2,21798,42,-3.221,-7.307,-16.5,20.0,18.272,-20.888,0.407,0.458,0.285,-491.0,-2.835,-5.757,-16.407,19.921,18.94,-23.633,0.923,0.475,0.626,-491.0,10.708,90531.531,939.999,10.713,90532.835,939.752,21798,-16.5,939.752,-164753760.0,-4.904,2.172,0.0,0.0,0.0,4.137,-9.423
21834,2,21834,36,-3.296,-6.625,-16.345,20.192,18.237,-22.145,0.634,0.467,0.501,-491.0,-4.587,-6.44,-16.672,20.461,17.699,-24.948,1.14,0.641,0.757,-491.0,10.711,90530.148,939.958,10.717,90526.54,940.164,21834,-16.345,940.164,-165336064.0,11.445,1.744,0.0,0.0,0.0,4.137,-9.624
21878,2,21878,44,-3.636,-6.228,-16.529,20.274,18.56,-23.498,0.798,0.219,0.750,-491.0,-4.622,-5.455,-16.952,21.46,17.743,-26.585,0.910,0.766,-1.305,-491.0,10.713,90528.554,939.938,10.713,90528.320,940.67,21878,-16.529,940.67,-166059296.0,-2.191,2.70,0.0,0.0,0.0,4.137,-9.732
21914,2,21914,36,-3.834,-5.939,-16.714,20.681,17.769,-25.7,0.936,0.13,0.942,-491.0,-4.120,-5.642,-17.31,21.718,16.968,-28.3,1.141,0.872,-1.465,-491.0,10.712,90531.31,940.2,10.708,90539.617,940.67,21914,-16.714,940.67,-166657680.0,0.0,2.0,0.0,0.0,0.0,4.137,-9.841
21956,2,21956,42,-4.127,-5.472,-16.938,20.868,17.342,-26.401,1.79,0.295,-1.140,-491.0,-4.472,-4.465,-17.627,21.192,16.208,-28.836,1.409,0.953,-1.545,-491.0,10.712,90532.390,940.106,10.708,90535.101,940.479,21956,-16.938,940.479,-167364384.0,9.810,1.772,0.0,0.0,0.0,4.137,-9.973
21992,2,21992,36,-4.489,-4.200,-17.8,21.265,16.404,-27.261,1.231,0.460,-1.58,-491.0,-4.644,0.602,-16.758,21.908,13.402,-27.930,1.683,0.351,0.218,-491.0,10.710,90531.726,940.87,10.704,90529.515,939.655,21992,-17.8,939.655,-167975424.0,-22.889,4.191,0.0,0.0,0.0,4.137,-10.14
22036,2,22036,44,-5.383,-3.981,-18.112,21.446,15.454,-27.819,1.215,0.624,0.934,-491.0,-9.59,-4.945,-22.192,21.368,12.949,-27.740,0.931,0.176,0.138,-491.0,10.709,90532.867,939.985,10.713,90531.781,939.655,22036,-18.112,939.655,-168748096.0,0.0,2.0,0.0,0.0,0.0,4.137,-10.664
22098,2,22098,62,-5.340,-3.537,-18.385,21.426,14.279,-28.76,1.49,0.463,0.674,-491.0,-4.407,-3.237,-18.316,20.944,11.867,-27.871,0.79,0.37,0.3,-491.0,10.709,90534.281,939.960,10.713,90535.382,939.945,22098,-18.385,939.945,-169879536.0,4.673,1.877,0.0,0.0,0.0,4.137,-10.825
22142,2,22142,44,-5.266,-3.267,-18.603,21.365,13.186,-28.35,0.831,0.265,0.383,-491.0,-3.747,-4.292,-18.122,21.411,11.502,-27.798,0.51,0.118,0.10,-491.0,10.705,90532.945,939.914,10.685,90532.976,939.835,22142,-18.603,939.835,-170693296.0,-2.491,2.80,0.0,0.0,0.0,4.137,-10.953
22178,2,22178,36,-5.235,-2.999,-18.751,21.391,12.139,-27.822,0.535,0.57,0.53,-491.0,-4.321,-3.122,-18.366,21.324,10.976,-27.769,0.69,0.84,0.102,-491.0,10.703,90531.171,939.829,10.699,90526.195,940.54,22178,-18.751,940.54,-171365696.0,6.74,1.845,0.0,0.0,0.0,4.137,-11.40
22221,2,22221,43,-5.201,-3.785,-19.57,21.344,11.771,-27.784,0.189,0.26,0.3,-491.0,-4.472,-3.330,-18.287,21.674,11.560,-27.740,0.48,0.66,0.67,-491.0,10.703,90533.242,939.826,10.704,90539.898,939.642,22221,-19.57,939.642,-172178592.0,-9.582,2.403,0.0,0.0,0.0,4.137,-11.220
22257,2,22257,36,-4.278,-3.455,-18.260,21.365,11.493,-27.787,0.0,0.64,0.29,-491.0,-4.443,-3.294,-18.208,21.470,11.560,-27.755,0.16,0.15,0.7,-491.0,10.699,90533.515,939.925,10.695,90533.117,940.151,22257,-18.260,940.151,-172850320.0,14.138,1.702,0.0,0.0,0.0,4.137,-10.751
22300,2,22300,43,-4.284,-3.447,-18.263,21.321,11.511,-27.717,0.16,0.56,0.22,-491.0,-4.436,-3.194,-18.330,20.724,11.955,-27.521,0.1,0.0,0.36,-491.0,10.696,90532.820,939.947,10.699,90531.921,940.54,22300,-18.263,940.54,-173635584.0,-2.254,2.72,0.0,0.0,0.0,4.137,-10.753
22336,2,22336,36,-4.440,-3.207,-18.286,21.239,11.514,-27.722,0.30,0.38,0.26,-491.0,-4.529,-3.93,-18.237,21.2,11.517,-27.828,0.22,0.25,0.7,-491.0,10.700,90532.156,940.49,10.704,90529.656,940.344,22336,-18.286,940.344,-174293472.0,8.63,1.805,0.0,0.0,0.0,4.137,-10.766
22378,2,22378,42,-4.477,-3.211,-18.274,21.268,11.701,-27.778,0.23,0.27,0.9,-491.0,-4.508,-3.144,-18.309,21.470,11.911,-28.47,0.29,0.29,0.17,-491.0,10.699,90532.859,939.986,10.695,90529.656,939.738,22378,-18.274,939.738,-175061264.0,-14.426,2.762,0.0,0.0,0.0,4.137,-10.760
22420,2,22420,42,-4.479,-3.195,-18.283,21.189,11.698,-27.793,0.16,0.17,0.5,-491.0,-4.479,-3.251,-18.330,21.280,11.546,-27.813,0.13,0.20,0.8,-491.0,10.697,90530.625,940.126,10.695,90528.742,940.344,22420,-18.283,940.344,-175828992.0,14.426,1.697,0.0,0.0,0.0,4.137,-10.765
22456,2,22456,36,-4.480,-3.178,-18.313,21.2,11.715,-27.819,0.17,0.20,0.2,-491.0,-4.450,-3.208,-18.359,20.534,11.648,-27.886,0.21,0.27,0.6,-491.0,10.697,90531.523,940.105,10.695,90537.640,940.41,22456,-18.313,940.41,-176487744.0,-8.416,2.337,0.0,0.0,0.0,4.137,-10.783
22498,2,22498,42,-4.489,-3.185,-18.313,21.125,11.645,-27.974,0.22,0.26,0.7,-491.0,-4.479,-3.230,-18.330,21.338,11.604,-28.295,0.24,0.30,0.14,-491.0,10.696,90532.242,940.141,10.695,90535.523,940.235,22498,-18.313,940.235,-177256912.0,4.603,1.878,0.0,0.0,0.0,4.137,-10.783
22534,2,22534,36,-4.454,-3.210,-18.319,21.166,11.680,-27.895,0.22,0.26,0.6,-491.0,-4.357,-3.215,-18.266,21.207,11.692,-27.433,0.22,0.22,0.2,-491.0,10.695,90532.484,940.141,10.699,90530.859,940.344,22534,-18.319,940.344,-177916304.0,3.44,1.916,0.0,0.0,0.0,4.137,-10.786
22577,2,22577,43,-4.450,-3.218,-18.322,21.55,11.654,-27.927,0.19,0.23,0.0,-491.0,-4.486,-3.187,-18.323,20.914,11.780,-28.208,0.13,0.15,0.18,-491.0,10.696,90532.515,940.240,10.699,90529.804,940.235,22577,-18.322,940.235,-178704096.0,-2.549,2.82,0.0,0.0,0.0,4.137,-10.788
22640,2,22640,63,-4.470,-3.201,-18.320,21.40,11.683,-27.980,0.19,0.24,0.3,-491.0,-4.579,-3.165,-18.323,21.207,11.692,-28.76,0.17,0.25,0.10,-491.0,10.695,90533.234,940.172,10.690,90532.343,940.3,22640,-18.320,940.3,-179858352.0,-3.681,2.124,0.0,0.0,0.0,4.137,-10.787
22682,2,22682,42,-4.462,-3.195,-18.292,21.160,11.698,-27.971,0.20,0.25,0.3,-491.0,-4.407,-3.180,-18.215,21.134,11.721,-27.842,0.25,0.34,0.8,-491.0,10.691,90531.968,940.224,10.672,90531.281,940.306,22682,-18.292,940.306,-180627216.0,7.213,1.822,0.0,0.0,0.0,4.137,-10.770
22719,2,22719,37,-4.465,-3.184,-18.292,20.979,11.791,-28.38,0.17,0.21,0.1,-491.0,-4.493,-3.172,-18.330,20.432,12.72,-28.631,0.8,0.10,0.13,-491.0,10.684,90531.109,940.200,10.662,90531.281,940.112,22719,-18.292,940.112,-181304016.0,-5.225,2.185,0.0,0.0,0.0,4.137,-10.770
22761,2,22761,42,-4.485,-3.167,-18.297,20.906,11.914,-28.249,0.15,0.19,0.4,-491.0,-4.457,-3.129,-18.294,20.841,12.306,-28.485,0.14,0.12,0.9,-491.0,10.677,90530.750,940.192,10.662,90529.23,940.306,22761,-18.297,940.306,-182072400.0,4.603,1.878,0.0,0.0,0.0,4.137,-10.773
22797,2,22797,36,-4.479,-3.177,-18.307,21.8,12.52,-28.184,0.17,0.22,0.2,-491.0,-4.457,-3.237,-18.373,21.426,12.467,-27.886,0.20,0.27,0.14,-491.0,10.670,90530.585,940.270,10.662,90529.23,940.621,22797,-18.307,940.621,-182731296.0,8.768,1.791,0.0,0.0,0.0,4.137,-10.779
22841,2,22841,44,-4.454,-3.180,-18.316,21.17,12.128,-28.175,0.16,0.22,0.0,-491.0,-4.457,-3.180,-18.366,21.251,12.72,-28.32,0.13,0.27,0.2,-491.0,10.664,90531.46,940.311,10.662,90534.601,940.209,22841,-18.316,940.209,-183537024.0,-9.377,2.391,0.0,0.0,0.0,4.137,-10.784
22878,2,22878,37,-4.480,-3.155,-18.339,21.11,12.244,-28.254,0.15,0.21,0.0,-491.0,-4.536,-3.58,-18.330,21.104,12.306,-28.237,0.21,0.28,0.6,-491.0,10.663,90530.593,940.454,10.667,90529.23,941.21,22878,-18.339,941.21,-184215152.0,21.944,1.603,0.0,0.0,0.0,4.137,-10.798
22920,2,22920,42,-4.492,-3.135,-18.348,21.148,12.291,-28.123,0.12,0.33,0.2,-491.0,-4.551,-3.72,-18.373,21.119,12.306,-27.974,0.7,0.70,0.19,-491.0,10.664,90528.812,940.534,10.667,90522.382,940.512,22920,-18.348,940.512,-184985584.0,-12.118,2.571,0.0,0.0,0.0,4.137,-10.803
22956,2,22956,36,-4.505,-3.119,-18.319,21.224,12.265,-28.97,0.10,0.64,0.2,-491.0,-4.522,-3.50,-18.151,21.221,12.174,-28.354,0.102,0.166,0.8,-491.0,10.662,90527.273,940.512,10.653,90521.328,940.196,22956,-18.319,940.196,-185645600.0,-8.768,2.356,0.0,0.0,0.0,4.137,-10.786
22999,2,22999,43,-4.562,-3.86,-18.260,21.233,12.136,-28.158,0.33,0.125,0.11,-491.0,-4.744,-3.72,-18.79,21.470,11.824,-28.193,0.94,0.334,0.35,-491.0,10.663,90527.515,940.528,10.667,90530.226,940.705,22999,-18.260,940.705,-186432064.0,11.837,1.737,0.0,0.0,0.0,4.137,-10.751
23035,2,23035,36,-4.782,-3.421,-18.329,21.157,11.835,-28.263,0.31,0.192,0.29,-491.0,-5.556,-4.852,-18.711,20.871,10.567,-28.558,0.24,0.360,0.89,-491.0,10.661,90526.421,940.567,10.653,90529.164,940.402,23035,-18.329,940.402,-187090688.0,-8.416,2.337,0.0,0.0,0.0,4.137,-10.792
23077,2,23077,42,-4.844,-3.439,-18.290,21.58,11.505,-28.333,0.31,0.195,0.26,-491.0,-4.845,-3.151,-18.137,20.608,10.654,-28.588,0.23,0.47,0.21,-491.0,10.659,90525.312,940.380,10.653,90523.445,940.87,23077,-18.290,940.87,-187859712.0,-7.516,2.291,0.0,0.0,0.0,4.137,-10.769
23141,2,23141,64,-4.884,-3.439,-18.273,20.780,11.204,-28.319,0.24,0.186,0.19,-491.0,-4.752,-3.72,-18.287,19.731,10.800,-27.901,0.27,0.24,0.15,-491.0,10.657,90525.125,940.433,10.658,90521.468,940.776,23141,-18.273,940.776,-189029760.0,10.776,1.755,0.0,0.0,0.0,4.137,-10.759
23183,2,23183,42,-4.931,-3.431,-18.290,20.695,10.999,-28.307,0.0,0.157,0.16,-491.0,-4.759,-3.7,-18.237,20.798,11.151,-28.295,0.22,0.21,0.4,-491.0,10.654,90526.54,940.511,10.639,90525.984,940.583,23183,-18.290,940.583,-189797600.0,-4.603,2.160,0.0,0.0,0.0,4.137,-10.769
23225,2,23225,42,-4.924,-3.439,-18.296,20.371,10.780,-28.357,0.23,0.96,0.10,-491.0,-4.709,-3.115,-18.108,19.847,10.727,-28.441,0.19,0.30,0.4,-491.0,10.649,90525.234,940.547,10.639,90526.132,940.885,23225,-18.296,940.885,-190565920.0,7.187,1.822,0.0,0.0,0.0,4.137,-10.772
23261,2,23261,36,-4.765,-3.70,-18.188,20.263,10.847,-28.360,0.22,0.30,0.9,-491.0,-4.759,-3.7,-18.172,20.330,10.903,-28.573,0.19,0.28,0.10,-491.0,10.645,90524.609,940.437,10.635,90525.984,939.855,23261,-18.188,939.855,-191222656.0,-28.613,8.62,0.0,0.0,0.0,4.137,-10.709
23304,2,23304,43,-4.744,-3.52,-18.188,20.374,10.859,-28.257,0.22,0.26,0.6,-491.0,-4.744,-3.58,-18.137,21.163,10.713,-28.76,0.25,0.26,0.5,-491.0,10.642,90527.820,940.454,10.639,90539.546,940.171,23304,-18.188,940.171,-192004768.0,7.352,1.819,0.0,0.0,0.0,4.137,-10.709
23340,2,23340,36,-4.749,-3.39,-18.165,20.654,10.912,-28.365,0.21,0.27,0.6,-491.0,-4.773,-3.7,-18.172,21.134,11.64,-28.441,0.21,0.29,0.13,-491.0,10.638,90528.546,940.270,10.639,90525.70,939.855,23340,-18.165,939.855,-192659152.0,-8.782,2.357,0.0,0.0,0.0,4.137,-10.695
23383,2,23383,43,-4.762,-3.47,-18.159,20.572,10.841,-28.439,0.21,0.26,0.5,-491.0,-4.823,-3.50,-18.208,20.388,10.800,-28.661,0.19,0.19,0.0,-491.0,10.637,90529.265,940.121,10.635,90529.585,939.842,23383,-18.159,939.842,-193440160.0,0.295,2.8,0.0,0.0,0.0,4.137,-10.692
23419,2,23419,36,-4.759,-3.16,-18.174,20.654,10.950,-28.433,0.21,0.25,0.7,-491.0,-4.694,-2.957,-18.180,20.257,11.268,-28.412,0.18,0.22,0.8,-491.0,10.637,90530.171,939.874,10.635,90530.648,939.649,23419,-18.174,939.649,-194094176.0,-5.354,2.191,0.0,0.0,0.0,4.137,-10.701
23462,2,23462,43,-4.746,-3.26,-18.174,20.762,10.914,-28.333,0.19,0.24,0.5,-491.0,-4.694,-3.58,-18.172,20.871,10.727,-28.76,0.13,0.24,0.3,-491.0,10.638,90532.210,939.894,10.644,90536.226,939.952,23462,-18.174,939.952,-194875680.0,7.31,1.825,0.0,0.0,0.0,4.137,-10.701
23498,2,23498,36,-4.746,-3.14,-18.175,20.634,10.938,-28.371,0.19,0.24,0.3,-491.0,-4.744,-3.0,-18.144,20.520,10.830,-28.266,0.21,0.25,0.0,-491.0,10.637,90530.671,939.850,10.630,90531.851,939.952,23498,-18.175,939.952,-195529984.0,0.0,2.0,0.0,0.0,0.0,4.137,-10.701
23541,2,23541,43,-4.749,-3.16,-18.175,20.508,10.923,-28.368,0.18,0.23,0.2,-491.0,-4.788,-3.14,-18.172,20.505,10.990,-28.427,0.20,0.26,0.3,-491.0,10.637,90533.148,939.767,10.639,90537.429,939.443,23541,-18.175,939.443,-196311536.0,-11.823,2.549,0.0,0.0,0.0,4.137,-10.701
23577,2,23577,36,-4.976,-2.858,-18.269,20.552,10.795,-28.246,0.31,0.35,0.63,-491.0,-5.958,-2.261,-18.675,20.608,10.157,-28.47,0.232,0.76,0.326,-491.0,10.637,90533.781,939.811,10.635,90532.765,940.60,23577,-18.269,940.60,-196967552.0,17.137,1.660,0.0,0.0,0.0,4.137,-10.756
